{
  "OID": "MDV.LZZT - NEW.Version1.Design1",
  "name": "MDV LZZT - NEW",
  "description": "Data Definitions for LZZT - NEW",
  "fileOID": "ODM.DEFINE-360i.LZZT - NEW.Version1.Design1",
  "creationDateTime": "2025-12-29T08:49:16.651424+00:00",
  "odmVersion": "1.3.2",
  "fileType": "Snapshot",
  "originator": "Define-360i Processor",
  "context": "Other",
  "defineVersion": "2.1.0",
  "studyOID": "ODM.LZZT - NEW.Version1.Design1",
  "studyName": "LZZT - NEW",
  "studyDescription": "Safety and Efficacy of the Xanomeline Transdermal Therapeutic System (TTS) in Patients with Mild to Moderate Alzheimer's Disease",
  "protocolName": "LZZT - NEW",
  "itemGroups": [
    {
      "OID": "IG.DS",
      "name": "DS",
      "description": "Disposition",
      "domain": "DS",
      "purpose": "Tabulation",
      "structure": "One record per disposition status or protocol milestone per subject",
      "isReferenceData": false,
      "wasDerivedFrom": "ST.SDTMIG",
      "items": [
        {
          "OID": "IT.DS.STUDYID",
          "mandatory": true,
          "name": "STUDYID",
          "description": "Study Identifier",
          "role": "Identifier",
          "dataType": "text"
        },
        {
          "OID": "IT.DS.DOMAIN",
          "mandatory": true,
          "name": "DOMAIN",
          "description": "Domain Abbreviation",
          "role": "Identifier",
          "dataType": "text"
        },
        {
          "OID": "IT.DS.USUBJID",
          "mandatory": true,
          "name": "USUBJID",
          "description": "Unique Subject Identifier",
          "role": "Identifier",
          "dataType": "text"
        },
        {
          "OID": "IT.DS.DSSEQ",
          "mandatory": true,
          "name": "DSSEQ",
          "description": "Sequence Number",
          "role": "Identifier",
          "dataType": "float"
        },
        {
          "OID": "IT.DS.DSTERM",
          "mandatory": true,
          "name": "DSTERM",
          "description": "Reported Term for the Disposition Event",
          "role": "Topic",
          "dataType": "text"
        },
        {
          "OID": "IT.DS.DSDECOD",
          "mandatory": true,
          "name": "DSDECOD",
          "description": "Standardized Disposition Term",
          "role": "Synonym Qualifier",
          "dataType": "text",
          "codeList": "CL.NCOMPLT"
        },
        {
          "OID": "IT.DS.DSCAT",
          "mandatory": false,
          "name": "DSCAT",
          "description": "Category for Disposition Event",
          "role": "Grouping Qualifier",
          "dataType": "text",
          "codeList": "CL.DSCAT"
        },
        {
          "OID": "IT.DS.DSSCAT",
          "mandatory": false,
          "name": "DSSCAT",
          "description": "Subcategory for Disposition Event",
          "role": "Grouping Qualifier",
          "dataType": "text",
          "codeList": "CL.DSSCAT"
        },
        {
          "OID": "IT.DS.DSSTDTC",
          "mandatory": false,
          "name": "DSSTDTC",
          "description": "Start Date/Time of Disposition Event",
          "role": "Timing",
          "dataType": "text"
        },
        {
          "OID": "IT.DS.DSSTDY",
          "mandatory": false,
          "name": "DSSTDY",
          "description": "Study Day of Start of Disposition Event",
          "role": "Timing",
          "dataType": "float"
        }
      ]
    },
    {
      "OID": "IG.DM",
      "name": "DM",
      "description": "Demographics",
      "domain": "DM",
      "purpose": "Tabulation",
      "structure": "One record per subject",
      "isReferenceData": false,
      "wasDerivedFrom": "ST.SDTMIG",
      "items": [
        {
          "OID": "IT.DM.STUDYID",
          "mandatory": true,
          "name": "STUDYID",
          "description": "Study Identifier",
          "role": "Identifier",
          "dataType": "text"
        },
        {
          "OID": "IT.DM.DOMAIN",
          "mandatory": true,
          "name": "DOMAIN",
          "description": "Domain Abbreviation",
          "role": "Identifier",
          "dataType": "text"
        },
        {
          "OID": "IT.DM.USUBJID",
          "mandatory": true,
          "name": "USUBJID",
          "description": "Unique Subject Identifier",
          "role": "Identifier",
          "dataType": "text"
        },
        {
          "OID": "IT.DM.SUBJID",
          "mandatory": true,
          "name": "SUBJID",
          "description": "Subject Identifier for the Study",
          "role": "Topic",
          "dataType": "text"
        },
        {
          "OID": "IT.DM.RFSTDTC",
          "mandatory": false,
          "name": "RFSTDTC",
          "description": "Subject Reference Start Date/Time",
          "role": "Record Qualifier",
          "dataType": "text"
        },
        {
          "OID": "IT.DM.RFENDTC",
          "mandatory": false,
          "name": "RFENDTC",
          "description": "Subject Reference End Date/Time",
          "role": "Record Qualifier",
          "dataType": "text"
        },
        {
          "OID": "IT.DM.RFXSTDTC",
          "mandatory": false,
          "name": "RFXSTDTC",
          "description": "Date/Time of First Study Treatment",
          "role": "Record Qualifier",
          "dataType": "text"
        },
        {
          "OID": "IT.DM.RFXENDTC",
          "mandatory": false,
          "name": "RFXENDTC",
          "description": "Date/Time of Last Study Treatment",
          "role": "Record Qualifier",
          "dataType": "text"
        },
        {
          "OID": "IT.DM.RFICDTC",
          "mandatory": false,
          "name": "RFICDTC",
          "description": "Date/Time of Informed Consent",
          "role": "Record Qualifier",
          "dataType": "text"
        },
        {
          "OID": "IT.DM.RFPENDTC",
          "mandatory": false,
          "name": "RFPENDTC",
          "description": "Date/Time of End of Participation",
          "role": "Record Qualifier",
          "dataType": "text"
        },
        {
          "OID": "IT.DM.DTHDTC",
          "mandatory": false,
          "name": "DTHDTC",
          "description": "Date/Time of Death",
          "role": "Record Qualifier",
          "dataType": "text"
        },
        {
          "OID": "IT.DM.DTHFL",
          "mandatory": false,
          "name": "DTHFL",
          "description": "Subject Death Flag",
          "role": "Record Qualifier",
          "dataType": "text",
          "codeList": "CL.NY"
        },
        {
          "OID": "IT.DM.SITEID",
          "mandatory": true,
          "name": "SITEID",
          "description": "Study Site Identifier",
          "role": "Record Qualifier",
          "dataType": "text"
        },
        {
          "OID": "IT.DM.AGE",
          "mandatory": false,
          "name": "AGE",
          "description": "Age",
          "role": "Record Qualifier",
          "dataType": "float"
        },
        {
          "OID": "IT.DM.AGEU",
          "mandatory": false,
          "name": "AGEU",
          "description": "Age Units",
          "role": "Variable Qualifier",
          "dataType": "text",
          "codeList": "CL.AGEU"
        },
        {
          "OID": "IT.DM.SEX",
          "mandatory": true,
          "name": "SEX",
          "description": "Sex",
          "role": "Record Qualifier",
          "dataType": "text",
          "codeList": "CL.SEX"
        },
        {
          "OID": "IT.DM.RACE",
          "mandatory": false,
          "name": "RACE",
          "description": "Race",
          "role": "Record Qualifier",
          "dataType": "text",
          "codeList": "CL.RACE"
        },
        {
          "OID": "IT.DM.ETHNIC",
          "mandatory": false,
          "name": "ETHNIC",
          "description": "Ethnicity",
          "role": "Record Qualifier",
          "dataType": "text",
          "codeList": "CL.ETHNIC"
        },
        {
          "OID": "IT.DM.ARMCD",
          "mandatory": false,
          "name": "ARMCD",
          "description": "Planned Arm Code",
          "role": "Record Qualifier",
          "dataType": "text"
        },
        {
          "OID": "IT.DM.ARM",
          "mandatory": false,
          "name": "ARM",
          "description": "Description of Planned Arm",
          "role": "Synonym Qualifier",
          "dataType": "text"
        },
        {
          "OID": "IT.DM.ACTARMCD",
          "mandatory": false,
          "name": "ACTARMCD",
          "description": "Actual Arm Code",
          "role": "Record Qualifier",
          "dataType": "text"
        },
        {
          "OID": "IT.DM.ACTARM",
          "mandatory": false,
          "name": "ACTARM",
          "description": "Description of Actual Arm",
          "role": "Synonym Qualifier",
          "dataType": "text"
        },
        {
          "OID": "IT.DM.ARMNRS",
          "mandatory": false,
          "name": "ARMNRS",
          "description": "Reason Arm and/or Actual Arm is Null",
          "role": "Record Qualifier",
          "dataType": "text",
          "codeList": "CL.ARMNULRS"
        },
        {
          "OID": "IT.DM.ACTARMUD",
          "mandatory": false,
          "name": "ACTARMUD",
          "description": "Description of Unplanned Actual Arm",
          "role": "Record Qualifier",
          "dataType": "text"
        },
        {
          "OID": "IT.DM.COUNTRY",
          "mandatory": true,
          "name": "COUNTRY",
          "description": "Country",
          "role": "Record Qualifier",
          "dataType": "text"
        },
        {
          "OID": "IT.DM.DMDTC",
          "mandatory": false,
          "name": "DMDTC",
          "description": "Date/Time of Collection",
          "role": "Timing",
          "dataType": "text"
        }
      ]
    },
    {
      "OID": "IG.SC",
      "name": "SC",
      "description": "Subject Characteristics",
      "domain": "SC",
      "purpose": "Tabulation",
      "structure": "One record per characteristic per visit per subject.",
      "isReferenceData": false,
      "wasDerivedFrom": "ST.SDTMIG",
      "items": [
        {
          "OID": "IT.SC.STUDYID",
          "mandatory": true,
          "name": "STUDYID",
          "description": "Study Identifier",
          "role": "Identifier",
          "dataType": "text"
        },
        {
          "OID": "IT.SC.DOMAIN",
          "mandatory": true,
          "name": "DOMAIN",
          "description": "Domain Abbreviation",
          "role": "Identifier",
          "dataType": "text"
        },
        {
          "OID": "IT.SC.USUBJID",
          "mandatory": true,
          "name": "USUBJID",
          "description": "Unique Subject Identifier",
          "role": "Identifier",
          "dataType": "text"
        },
        {
          "OID": "IT.SC.SCSEQ",
          "mandatory": true,
          "name": "SCSEQ",
          "description": "Sequence Number",
          "role": "Identifier",
          "dataType": "float"
        },
        {
          "OID": "IT.SC.SCTESTCD",
          "mandatory": true,
          "name": "SCTESTCD",
          "description": "Subject Characteristic Short Name",
          "role": "Topic",
          "dataType": "text",
          "codeList": "CL.SCTESTCD"
        },
        {
          "OID": "IT.SC.SCTEST",
          "mandatory": true,
          "name": "SCTEST",
          "description": "Subject Characteristic",
          "role": "Synonym Qualifier",
          "dataType": "text",
          "codeList": "CL.SCTEST"
        },
        {
          "OID": "IT.SC.SCORRES",
          "mandatory": false,
          "name": "SCORRES",
          "description": "Result or Finding in Original Units",
          "role": "Result Qualifier",
          "dataType": "text"
        },
        {
          "OID": "IT.SC.SCORRESU",
          "mandatory": false,
          "name": "SCORRESU",
          "description": "Original Units",
          "role": "Variable Qualifier",
          "dataType": "text",
          "codeList": "CL.UNIT"
        },
        {
          "OID": "IT.SC.SCSTRESC",
          "mandatory": false,
          "name": "SCSTRESC",
          "description": "Character Result/Finding in Std Format",
          "role": "Result Qualifier",
          "dataType": "text"
        },
        {
          "OID": "IT.SC.SCSTRESN",
          "mandatory": false,
          "name": "SCSTRESN",
          "description": "Numeric Result/Finding in Standard Units",
          "role": "Result Qualifier",
          "dataType": "float"
        },
        {
          "OID": "IT.SC.SCSTRESU",
          "mandatory": false,
          "name": "SCSTRESU",
          "description": "Standard Units",
          "role": "Variable Qualifier",
          "dataType": "text",
          "codeList": "CL.UNIT"
        },
        {
          "OID": "IT.SC.SCDTC",
          "mandatory": false,
          "name": "SCDTC",
          "description": "Date/Time of Collection",
          "role": "Timing",
          "dataType": "text"
        }
      ],
      "slices": [
        {
          "OID": "VL.SC.SCORRES",
          "name": "VL_SC_SCORRES",
          "type": "ValueList",
          "items": [
            {
              "OID": "IT.SC.SCORRES.EDULEVEL",
              "mandatory": false,
              "name": "SCORRES",
              "dataType": "float",
              "applicableWhen": [
                "WC.SC.48924878"
              ],
              "displayFormat": "3.1",
              "significantDigits": 1,
              "origin": {
                "type": "Collected",
                "source": "Investigator"
              }
            },
            {
              "OID": "IT.SC.SCORRES.EDUYRNUM",
              "mandatory": false,
              "name": "SCORRES",
              "dataType": "float",
              "applicableWhen": [
                "WC.SC.e7173a71"
              ],
              "displayFormat": "3.1",
              "significantDigits": 1,
              "origin": {
                "type": "Collected",
                "source": "Investigator"
              }
            }
          ]
        },
        {
          "OID": "VL.SC.SCORRESU",
          "name": "VL_SC_SCORRESU",
          "type": "ValueList",
          "items": [
            {
              "OID": "IT.SC.SCORRESU.EDUYRNUM",
              "mandatory": false,
              "name": "SCORRESU",
              "dataType": "text",
              "applicableWhen": [
                "WC.SC.5fc4562e"
              ]
            }
          ]
        }
      ]
    },
    {
      "OID": "IG.MH",
      "name": "MH",
      "description": "Medical History",
      "domain": "MH",
      "purpose": "Tabulation",
      "structure": "One record per medical history event per subject",
      "isReferenceData": false,
      "wasDerivedFrom": "ST.SDTMIG",
      "items": [
        {
          "OID": "IT.MH.STUDYID",
          "mandatory": true,
          "name": "STUDYID",
          "description": "Study Identifier",
          "role": "Identifier",
          "dataType": "text"
        },
        {
          "OID": "IT.MH.DOMAIN",
          "mandatory": true,
          "name": "DOMAIN",
          "description": "Domain Abbreviation",
          "role": "Identifier",
          "dataType": "text"
        },
        {
          "OID": "IT.MH.USUBJID",
          "mandatory": true,
          "name": "USUBJID",
          "description": "Unique Subject Identifier",
          "role": "Identifier",
          "dataType": "text"
        },
        {
          "OID": "IT.MH.MHSEQ",
          "mandatory": true,
          "name": "MHSEQ",
          "description": "Sequence Number",
          "role": "Identifier",
          "dataType": "float"
        },
        {
          "OID": "IT.MH.MHTERM",
          "mandatory": true,
          "name": "MHTERM",
          "description": "Reported Term for the Medical History",
          "role": "Topic",
          "dataType": "text"
        },
        {
          "OID": "IT.MH.MHDECOD",
          "mandatory": false,
          "name": "MHDECOD",
          "description": "Dictionary-Derived Term",
          "role": "Synonym Qualifier",
          "dataType": "text"
        },
        {
          "OID": "IT.MH.MHPRESP",
          "mandatory": false,
          "name": "MHPRESP",
          "description": "Medical History Event Pre-Specified",
          "role": "Variable Qualifier",
          "dataType": "text",
          "codeList": "CL.NY"
        },
        {
          "OID": "IT.MH.MHOCCUR",
          "mandatory": false,
          "name": "MHOCCUR",
          "description": "Medical History Occurrence",
          "role": "Record Qualifier",
          "dataType": "text",
          "codeList": "CL.NY"
        },
        {
          "OID": "IT.MH.MHENRF",
          "mandatory": false,
          "name": "MHENRF",
          "description": "End Relative to Reference Period",
          "role": "Timing",
          "dataType": "text",
          "codeList": "CL.STENRF"
        },
        {
          "OID": "IT.MH.MHENRTPT",
          "mandatory": false,
          "name": "MHENRTPT",
          "description": "End Relative to Reference Time Point",
          "role": "Timing",
          "dataType": "text",
          "codeList": "CL.STENRF"
        },
        {
          "OID": "IT.MH.MHENTPT",
          "mandatory": false,
          "name": "MHENTPT",
          "description": "End Reference Time Point",
          "role": "Timing",
          "dataType": "text"
        }
      ]
    },
    {
      "OID": "IG.SU",
      "name": "SU",
      "description": "Substance Use",
      "domain": "SU",
      "purpose": "Tabulation",
      "structure": "One record per substance type per reported occurrence per subject",
      "isReferenceData": false,
      "wasDerivedFrom": "ST.SDTMIG",
      "items": [
        {
          "OID": "IT.SU.STUDYID",
          "mandatory": true,
          "name": "STUDYID",
          "description": "Study Identifier",
          "role": "Identifier",
          "dataType": "text"
        },
        {
          "OID": "IT.SU.DOMAIN",
          "mandatory": true,
          "name": "DOMAIN",
          "description": "Domain Abbreviation",
          "role": "Identifier",
          "dataType": "text"
        },
        {
          "OID": "IT.SU.USUBJID",
          "mandatory": true,
          "name": "USUBJID",
          "description": "Unique Subject Identifier",
          "role": "Identifier",
          "dataType": "text"
        },
        {
          "OID": "IT.SU.SUSEQ",
          "mandatory": true,
          "name": "SUSEQ",
          "description": "Sequence Number",
          "role": "Identifier",
          "dataType": "float"
        },
        {
          "OID": "IT.SU.SUTRT",
          "mandatory": true,
          "name": "SUTRT",
          "description": "Reported Name of Substance",
          "role": "Topic",
          "dataType": "text"
        },
        {
          "OID": "IT.SU.SUCAT",
          "mandatory": false,
          "name": "SUCAT",
          "description": "Category for Substance Use",
          "role": "Grouping Qualifier",
          "dataType": "text"
        },
        {
          "OID": "IT.SU.SUSCAT",
          "mandatory": false,
          "name": "SUSCAT",
          "description": "Subcategory for Substance Use",
          "role": "Grouping Qualifier",
          "dataType": "text"
        },
        {
          "OID": "IT.SU.SUPRESP",
          "mandatory": false,
          "name": "SUPRESP",
          "description": "SU Pre-Specified",
          "role": "Variable Qualifier",
          "dataType": "text",
          "codeList": "CL.NY"
        },
        {
          "OID": "IT.SU.SUOCCUR",
          "mandatory": false,
          "name": "SUOCCUR",
          "description": "SU Occurrence",
          "role": "Record Qualifier",
          "dataType": "text",
          "codeList": "CL.NY"
        },
        {
          "OID": "IT.SU.SUDOSE",
          "mandatory": false,
          "name": "SUDOSE",
          "description": "Substance Use Consumption",
          "role": "Record Qualifier",
          "dataType": "float"
        },
        {
          "OID": "IT.SU.SUDOSTXT",
          "mandatory": false,
          "name": "SUDOSTXT",
          "description": "Substance Use Consumption Text",
          "role": "Record Qualifier",
          "dataType": "text"
        },
        {
          "OID": "IT.SU.SUDOSU",
          "mandatory": false,
          "name": "SUDOSU",
          "description": "Consumption Units",
          "role": "Variable Qualifier",
          "dataType": "text",
          "codeList": "CL.UNIT"
        },
        {
          "OID": "IT.SU.SUDOSFRQ",
          "mandatory": false,
          "name": "SUDOSFRQ",
          "description": "Use Frequency Per Interval",
          "role": "Variable Qualifier",
          "dataType": "text",
          "codeList": "CL.FREQ"
        },
        {
          "OID": "IT.SU.SUSTDTC",
          "mandatory": false,
          "name": "SUSTDTC",
          "description": "Start Date/Time of Substance Use",
          "role": "Timing",
          "dataType": "text"
        },
        {
          "OID": "IT.SU.SUENDTC",
          "mandatory": false,
          "name": "SUENDTC",
          "description": "End Date/Time of Substance Use",
          "role": "Timing",
          "dataType": "text"
        },
        {
          "OID": "IT.SU.SUDUR",
          "mandatory": false,
          "name": "SUDUR",
          "description": "Duration of Substance Use",
          "role": "Timing",
          "dataType": "text"
        },
        {
          "OID": "IT.SU.SUSTRF",
          "mandatory": false,
          "name": "SUSTRF",
          "description": "Start Relative to Reference Period",
          "role": "Timing",
          "dataType": "text",
          "codeList": "CL.STENRF"
        },
        {
          "OID": "IT.SU.SUENRF",
          "mandatory": false,
          "name": "SUENRF",
          "description": "End Relative to Reference Period",
          "role": "Timing",
          "dataType": "text",
          "codeList": "CL.STENRF"
        },
        {
          "OID": "IT.SU.SUSTRTPT",
          "mandatory": false,
          "name": "SUSTRTPT",
          "description": "Start Relative to Reference Time Point",
          "role": "Timing",
          "dataType": "text",
          "codeList": "CL.STENRF"
        },
        {
          "OID": "IT.SU.SUSTTPT",
          "mandatory": false,
          "name": "SUSTTPT",
          "description": "Start Reference Time Point",
          "role": "Timing",
          "dataType": "text"
        },
        {
          "OID": "IT.SU.SUENRTPT",
          "mandatory": false,
          "name": "SUENRTPT",
          "description": "End Relative to Reference Time Point",
          "role": "Timing",
          "dataType": "text",
          "codeList": "CL.STENRF"
        },
        {
          "OID": "IT.SU.SUENTPT",
          "mandatory": false,
          "name": "SUENTPT",
          "description": "End Reference Time Point",
          "role": "Timing",
          "dataType": "text"
        }
      ]
    },
    {
      "OID": "IG.PR",
      "name": "PR",
      "description": "Procedures",
      "domain": "PR",
      "purpose": "Tabulation",
      "structure": "One record per recorded procedure per occurrence per subject",
      "isReferenceData": false,
      "wasDerivedFrom": "ST.SDTMIG",
      "items": [
        {
          "OID": "IT.PR.STUDYID",
          "mandatory": true,
          "name": "STUDYID",
          "description": "Study Identifier",
          "role": "Identifier",
          "dataType": "text"
        },
        {
          "OID": "IT.PR.DOMAIN",
          "mandatory": true,
          "name": "DOMAIN",
          "description": "Domain Abbreviation",
          "role": "Identifier",
          "dataType": "text"
        },
        {
          "OID": "IT.PR.USUBJID",
          "mandatory": true,
          "name": "USUBJID",
          "description": "Unique Subject Identifier",
          "role": "Identifier",
          "dataType": "text"
        },
        {
          "OID": "IT.PR.PRSEQ",
          "mandatory": true,
          "name": "PRSEQ",
          "description": "Sequence Number",
          "role": "Identifier",
          "dataType": "float"
        },
        {
          "OID": "IT.PR.PRTRT",
          "mandatory": true,
          "name": "PRTRT",
          "description": "Reported Name of Procedure",
          "role": "Topic",
          "dataType": "text"
        },
        {
          "OID": "IT.PR.PRDECOD",
          "mandatory": false,
          "name": "PRDECOD",
          "description": "Standardized Procedure Name",
          "role": "Synonym Qualifier",
          "dataType": "text",
          "codeList": "CL.PROCEDUR"
        },
        {
          "OID": "IT.PR.PRCAT",
          "mandatory": false,
          "name": "PRCAT",
          "description": "Category",
          "role": "Grouping Qualifier",
          "dataType": "text"
        },
        {
          "OID": "IT.PR.PRSCAT",
          "mandatory": false,
          "name": "PRSCAT",
          "description": "Subcategory",
          "role": "Grouping Qualifier",
          "dataType": "text"
        },
        {
          "OID": "IT.PR.PRPRESP",
          "mandatory": false,
          "name": "PRPRESP",
          "description": "Pre-specified",
          "role": "Variable Qualifier",
          "dataType": "text",
          "codeList": "CL.NY"
        },
        {
          "OID": "IT.PR.PROCCUR",
          "mandatory": false,
          "name": "PROCCUR",
          "description": "Occurrence",
          "role": "Record Qualifier",
          "dataType": "text",
          "codeList": "CL.NY"
        },
        {
          "OID": "IT.PR.PRLOC",
          "mandatory": false,
          "name": "PRLOC",
          "description": "Location of Procedure",
          "role": "Record Qualifier",
          "dataType": "text",
          "codeList": "CL.LOC"
        },
        {
          "OID": "IT.PR.PRSTDTC",
          "mandatory": false,
          "name": "PRSTDTC",
          "description": "Start Date/Time of Procedure",
          "role": "Timing",
          "dataType": "text"
        },
        {
          "OID": "IT.PR.PRENDTC",
          "mandatory": false,
          "name": "PRENDTC",
          "description": "End Date/Time of Procedure",
          "role": "Timing",
          "dataType": "text"
        }
      ]
    },
    {
      "OID": "IG.VS",
      "name": "VS",
      "description": "Vital Signs",
      "domain": "VS",
      "purpose": "Tabulation",
      "structure": "One record per vital sign measurement per time point per visit per subject",
      "isReferenceData": false,
      "wasDerivedFrom": "ST.SDTMIG",
      "items": [
        {
          "OID": "IT.VS.STUDYID",
          "mandatory": true,
          "name": "STUDYID",
          "description": "Study Identifier",
          "role": "Identifier",
          "dataType": "text"
        },
        {
          "OID": "IT.VS.DOMAIN",
          "mandatory": true,
          "name": "DOMAIN",
          "description": "Domain Abbreviation",
          "role": "Identifier",
          "dataType": "text"
        },
        {
          "OID": "IT.VS.USUBJID",
          "mandatory": true,
          "name": "USUBJID",
          "description": "Unique Subject Identifier",
          "role": "Identifier",
          "dataType": "text"
        },
        {
          "OID": "IT.VS.VSSEQ",
          "mandatory": true,
          "name": "VSSEQ",
          "description": "Sequence Number",
          "role": "Identifier",
          "dataType": "float"
        },
        {
          "OID": "IT.VS.VSTESTCD",
          "mandatory": true,
          "name": "VSTESTCD",
          "description": "Vital Signs Test Short Name",
          "role": "Topic",
          "dataType": "text",
          "codeList": "CL.VSTESTCD"
        },
        {
          "OID": "IT.VS.VSTEST",
          "mandatory": true,
          "name": "VSTEST",
          "description": "Vital Signs Test Name",
          "role": "Synonym Qualifier",
          "dataType": "text",
          "codeList": "CL.VSTEST"
        },
        {
          "OID": "IT.VS.VSPOS",
          "mandatory": false,
          "name": "VSPOS",
          "description": "Vital Signs Position of Subject",
          "role": "Record Qualifier",
          "dataType": "text",
          "codeList": "CL.POSITION"
        },
        {
          "OID": "IT.VS.VSORRES",
          "mandatory": false,
          "name": "VSORRES",
          "description": "Result or Finding in Original Units",
          "role": "Result Qualifier",
          "dataType": "text"
        },
        {
          "OID": "IT.VS.VSORRESU",
          "mandatory": false,
          "name": "VSORRESU",
          "description": "Original Units",
          "role": "Variable Qualifier",
          "dataType": "text",
          "codeList": "CL.VSRESU"
        },
        {
          "OID": "IT.VS.VSSTRESC",
          "mandatory": false,
          "name": "VSSTRESC",
          "description": "Character Result/Finding in Std Format",
          "role": "Result Qualifier",
          "dataType": "text"
        },
        {
          "OID": "IT.VS.VSSTRESN",
          "mandatory": false,
          "name": "VSSTRESN",
          "description": "Numeric Result/Finding in Standard Units",
          "role": "Result Qualifier",
          "dataType": "float"
        },
        {
          "OID": "IT.VS.VSSTRESU",
          "mandatory": false,
          "name": "VSSTRESU",
          "description": "Standard Units",
          "role": "Variable Qualifier",
          "dataType": "text",
          "codeList": "CL.VSRESU"
        },
        {
          "OID": "IT.VS.VSLOC",
          "mandatory": false,
          "name": "VSLOC",
          "description": "Location of Vital Signs Measurement",
          "role": "Record Qualifier",
          "dataType": "text",
          "codeList": "CL.LOC"
        },
        {
          "OID": "IT.VS.VSLAT",
          "mandatory": false,
          "name": "VSLAT",
          "description": "Laterality",
          "role": "Result Qualifier",
          "dataType": "text",
          "codeList": "CL.LAT"
        },
        {
          "OID": "IT.VS.VSLOBXFL",
          "mandatory": false,
          "name": "VSLOBXFL",
          "description": "Last Observation Before Exposure Flag",
          "role": "Record Qualifier",
          "dataType": "text",
          "codeList": "CL.NY"
        },
        {
          "OID": "IT.VS.VISITNUM",
          "mandatory": false,
          "name": "VISITNUM",
          "description": "Visit Number",
          "role": "Timing",
          "dataType": "float"
        },
        {
          "OID": "IT.VS.VSDTC",
          "mandatory": false,
          "name": "VSDTC",
          "description": "Date/Time of Measurements",
          "role": "Timing",
          "dataType": "text"
        }
      ],
      "slices": [
        {
          "OID": "VL.VS.VSORRES",
          "name": "VL_VS_VSORRES",
          "type": "ValueList",
          "items": [
            {
              "OID": "IT.VS.VSORRES.TEMP",
              "mandatory": false,
              "name": "VSORRES",
              "dataType": "float",
              "applicableWhen": [
                "WC.VS.df8e6ed8"
              ],
              "displayFormat": "8.3",
              "significantDigits": 3,
              "origin": {
                "type": "Collected",
                "source": "Investigator"
              }
            },
            {
              "OID": "IT.VS.VSORRES.WEIGHT",
              "mandatory": false,
              "name": "VSORRES",
              "dataType": "float",
              "applicableWhen": [
                "WC.VS.362bc1cf"
              ],
              "displayFormat": "8.3",
              "significantDigits": 3,
              "origin": {
                "type": "Collected",
                "source": "Investigator"
              }
            },
            {
              "OID": "IT.VS.VSORRES.HEIGHT",
              "mandatory": false,
              "name": "VSORRES",
              "dataType": "float",
              "applicableWhen": [
                "WC.VS.22da90ca"
              ],
              "displayFormat": "8.3",
              "significantDigits": 3,
              "origin": {
                "type": "Collected",
                "source": "Investigator"
              }
            },
            {
              "OID": "IT.VS.VSORRES.PULSE",
              "mandatory": false,
              "name": "VSORRES",
              "dataType": "integer",
              "applicableWhen": [
                "WC.VS.90269389"
              ],
              "origin": {
                "type": "Collected",
                "source": "Investigator"
              }
            },
            {
              "OID": "IT.VS.VSORRES.RESP",
              "mandatory": false,
              "name": "VSORRES",
              "dataType": "integer",
              "applicableWhen": [
                "WC.VS.02e0f161"
              ],
              "origin": {
                "type": "Collected",
                "source": "Investigator"
              }
            },
            {
              "OID": "IT.VS.VSORRES.BMI",
              "mandatory": false,
              "name": "VSORRES",
              "dataType": "float",
              "applicableWhen": [
                "WC.VS.ba9d17a7"
              ],
              "displayFormat": "8.3",
              "origin": {
                "type": "Derived",
                "source": "Sponsor"
              }
            },
            {
              "OID": "IT.VS.VSORRES.SYSBP",
              "mandatory": false,
              "name": "VSORRES",
              "dataType": "integer",
              "applicableWhen": [
                "WC.VS.037b6848"
              ],
              "origin": {
                "type": "Collected",
                "source": "Investigator"
              }
            },
            {
              "OID": "IT.VS.VSORRES.DIABP",
              "mandatory": false,
              "name": "VSORRES",
              "dataType": "integer",
              "applicableWhen": [
                "WC.VS.fe755a11"
              ],
              "origin": {
                "type": "Collected",
                "source": "Investigator"
              }
            },
            {
              "OID": "IT.VS.VSORRES.HR",
              "mandatory": false,
              "name": "VSORRES",
              "dataType": "integer",
              "applicableWhen": [
                "WC.VS.324e0cc0"
              ],
              "origin": {
                "type": "Collected",
                "source": "Investigator"
              }
            }
          ]
        },
        {
          "OID": "VL.VS.VSORRESU",
          "name": "VL_VS_VSORRESU",
          "type": "ValueList",
          "items": [
            {
              "OID": "IT.VS.VSORRESU.TEMP",
              "mandatory": false,
              "name": "VSORRESU",
              "dataType": "text",
              "applicableWhen": [
                "WC.VS.dea56915"
              ]
            },
            {
              "OID": "IT.VS.VSORRESU.WEIGHT",
              "mandatory": false,
              "name": "VSORRESU",
              "dataType": "text",
              "applicableWhen": [
                "WC.VS.ef959fbb"
              ]
            },
            {
              "OID": "IT.VS.VSORRESU.HEIGHT",
              "mandatory": false,
              "name": "VSORRESU",
              "dataType": "text",
              "applicableWhen": [
                "WC.VS.97262f9f"
              ]
            },
            {
              "OID": "IT.VS.VSORRESU.PULSE",
              "mandatory": false,
              "name": "VSORRESU",
              "dataType": "text",
              "applicableWhen": [
                "WC.VS.2fad3005"
              ]
            },
            {
              "OID": "IT.VS.VSORRESU.RESP",
              "mandatory": false,
              "name": "VSORRESU",
              "dataType": "text",
              "applicableWhen": [
                "WC.VS.f296848d"
              ]
            },
            {
              "OID": "IT.VS.VSORRESU.BMI",
              "mandatory": false,
              "name": "VSORRESU",
              "dataType": "text",
              "applicableWhen": [
                "WC.VS.ca4251ba"
              ]
            },
            {
              "OID": "IT.VS.VSORRESU.SYSBP",
              "mandatory": false,
              "name": "VSORRESU",
              "dataType": "text",
              "applicableWhen": [
                "WC.VS.301c7ee3"
              ]
            },
            {
              "OID": "IT.VS.VSORRESU.DIABP",
              "mandatory": false,
              "name": "VSORRESU",
              "dataType": "text",
              "applicableWhen": [
                "WC.VS.714dfc07"
              ]
            },
            {
              "OID": "IT.VS.VSORRESU.HR",
              "mandatory": false,
              "name": "VSORRESU",
              "dataType": "text",
              "applicableWhen": [
                "WC.VS.5a9c1ab0"
              ]
            }
          ]
        }
      ]
    },
    {
      "OID": "IG.EG",
      "name": "EG",
      "description": "ECG Test Results",
      "domain": "EG",
      "purpose": "Tabulation",
      "structure": "One record per ECG observation per replicate per time point or one record per ECG observation per beat per visit per subject",
      "isReferenceData": false,
      "wasDerivedFrom": "ST.SDTMIG",
      "items": [
        {
          "OID": "IT.EG.STUDYID",
          "mandatory": true,
          "name": "STUDYID",
          "description": "Study Identifier",
          "role": "Identifier",
          "dataType": "text"
        },
        {
          "OID": "IT.EG.DOMAIN",
          "mandatory": true,
          "name": "DOMAIN",
          "description": "Domain Abbreviation",
          "role": "Identifier",
          "dataType": "text"
        },
        {
          "OID": "IT.EG.USUBJID",
          "mandatory": true,
          "name": "USUBJID",
          "description": "Unique Subject Identifier",
          "role": "Identifier",
          "dataType": "text"
        },
        {
          "OID": "IT.EG.EGSEQ",
          "mandatory": true,
          "name": "EGSEQ",
          "description": "Sequence Number",
          "role": "Identifier",
          "dataType": "float"
        },
        {
          "OID": "IT.EG.EGTESTCD",
          "mandatory": true,
          "name": "EGTESTCD",
          "description": "ECG Test or Examination Short Name",
          "role": "Topic",
          "dataType": "text",
          "codeList": "CL.EGTESTCD"
        },
        {
          "OID": "IT.EG.EGTEST",
          "mandatory": true,
          "name": "EGTEST",
          "description": "ECG Test or Examination Name",
          "role": "Synonym Qualifier",
          "dataType": "text",
          "codeList": "CL.EGTEST"
        },
        {
          "OID": "IT.EG.EGCAT",
          "mandatory": false,
          "name": "EGCAT",
          "description": "Category for ECG",
          "role": "Grouping Qualifier",
          "dataType": "text"
        },
        {
          "OID": "IT.EG.EGPOS",
          "mandatory": false,
          "name": "EGPOS",
          "description": "ECG Position of Subject",
          "role": "Record Qualifier",
          "dataType": "text",
          "codeList": "CL.POSITION"
        },
        {
          "OID": "IT.EG.EGORRES",
          "mandatory": false,
          "name": "EGORRES",
          "description": "Result or Finding in Original Units",
          "role": "Result Qualifier",
          "dataType": "text"
        },
        {
          "OID": "IT.EG.EGORRESU",
          "mandatory": false,
          "name": "EGORRESU",
          "description": "Original Units",
          "role": "Variable Qualifier",
          "dataType": "text",
          "codeList": "CL.UNIT"
        },
        {
          "OID": "IT.EG.EGSTRESC",
          "mandatory": false,
          "name": "EGSTRESC",
          "description": "Character Result/Finding in Std Format",
          "role": "Result Qualifier",
          "dataType": "text",
          "codeList": "CL.EGSTRESC"
        },
        {
          "OID": "IT.EG.EGSTRESN",
          "mandatory": false,
          "name": "EGSTRESN",
          "description": "Numeric Result/Finding in Standard Units",
          "role": "Result Qualifier",
          "dataType": "float"
        },
        {
          "OID": "IT.EG.EGSTRESU",
          "mandatory": false,
          "name": "EGSTRESU",
          "description": "Standard Units",
          "role": "Variable Qualifier",
          "dataType": "text",
          "codeList": "CL.UNIT"
        },
        {
          "OID": "IT.EG.EGMETHOD",
          "mandatory": false,
          "name": "EGMETHOD",
          "description": "Method of Test or Examination",
          "role": "Record Qualifier",
          "dataType": "text",
          "codeList": "CL.EGMETHOD"
        },
        {
          "OID": "IT.EG.EGLOBXFL",
          "mandatory": false,
          "name": "EGLOBXFL",
          "description": "Last Observation Before Exposure Flag",
          "role": "Record Qualifier",
          "dataType": "text",
          "codeList": "CL.NY"
        },
        {
          "OID": "IT.EG.EGEVAL",
          "mandatory": false,
          "name": "EGEVAL",
          "description": "Evaluator",
          "role": "Record Qualifier",
          "dataType": "text",
          "codeList": "CL.EVAL"
        },
        {
          "OID": "IT.EG.EGCLSIG",
          "mandatory": false,
          "name": "EGCLSIG",
          "description": "Clinically Significant, Collected",
          "role": "Record Qualifier",
          "dataType": "text",
          "codeList": "CL.NY"
        },
        {
          "OID": "IT.EG.VISITNUM",
          "mandatory": false,
          "name": "VISITNUM",
          "description": "Visit Number",
          "role": "Timing",
          "dataType": "float"
        },
        {
          "OID": "IT.EG.EGDTC",
          "mandatory": false,
          "name": "EGDTC",
          "description": "Date/Time of ECG",
          "role": "Timing",
          "dataType": "text"
        }
      ],
      "slices": [
        {
          "OID": "VL.EG.EGORRES",
          "name": "VL_EG_EGORRES",
          "type": "ValueList",
          "items": [
            {
              "OID": "IT.EG.EGORRES.INTP",
              "mandatory": false,
              "name": "EGORRES",
              "dataType": "text",
              "applicableWhen": [
                "WC.EG.f60b99cb"
              ]
            },
            {
              "OID": "IT.EG.EGORRES.AVCOND",
              "mandatory": false,
              "name": "EGORRES",
              "dataType": "text",
              "applicableWhen": [
                "WC.EG.d30401ba"
              ],
              "displayFormat": "8.3",
              "significantDigits": 3
            },
            {
              "OID": "IT.EG.EGORRES.AXISVOLT",
              "mandatory": false,
              "name": "EGORRES",
              "dataType": "text",
              "applicableWhen": [
                "WC.EG.0764363d"
              ],
              "displayFormat": "8.3",
              "significantDigits": 3
            },
            {
              "OID": "IT.EG.EGORRES.CHYPTENL",
              "mandatory": false,
              "name": "EGORRES",
              "dataType": "text",
              "applicableWhen": [
                "WC.EG.c7ca2c0d"
              ],
              "displayFormat": "8.3",
              "significantDigits": 3
            },
            {
              "OID": "IT.EG.EGORRES.TECHQUAL",
              "mandatory": false,
              "name": "EGORRES",
              "dataType": "text",
              "applicableWhen": [
                "WC.EG.0110957e"
              ]
            },
            {
              "OID": "IT.EG.EGORRES.IVTIACD",
              "mandatory": false,
              "name": "EGORRES",
              "dataType": "text",
              "applicableWhen": [
                "WC.EG.7a2cbb17"
              ],
              "displayFormat": "8.3",
              "significantDigits": 3
            },
            {
              "OID": "IT.EG.EGORRES.PACEMAKR",
              "mandatory": false,
              "name": "EGORRES",
              "dataType": "text",
              "applicableWhen": [
                "WC.EG.c82f004b"
              ],
              "displayFormat": "8.3",
              "significantDigits": 3
            },
            {
              "OID": "IT.EG.EGORRES.RHYNOS",
              "mandatory": false,
              "name": "EGORRES",
              "dataType": "text",
              "applicableWhen": [
                "WC.EG.aaf51dd5"
              ],
              "displayFormat": "8.3",
              "significantDigits": 3
            },
            {
              "OID": "IT.EG.EGORRES.SNRARRY",
              "mandatory": false,
              "name": "EGORRES",
              "dataType": "text",
              "applicableWhen": [
                "WC.EG.0a478649"
              ],
              "displayFormat": "8.3",
              "significantDigits": 3
            },
            {
              "OID": "IT.EG.EGORRES.SPRARRY",
              "mandatory": false,
              "name": "EGORRES",
              "dataType": "text",
              "applicableWhen": [
                "WC.EG.44c12ce4"
              ],
              "displayFormat": "8.3",
              "significantDigits": 3
            },
            {
              "OID": "IT.EG.EGORRES.SPRTARRY",
              "mandatory": false,
              "name": "EGORRES",
              "dataType": "text",
              "applicableWhen": [
                "WC.EG.7c9fb72d"
              ],
              "displayFormat": "8.3",
              "significantDigits": 3
            },
            {
              "OID": "IT.EG.EGORRES.VTARRY",
              "mandatory": false,
              "name": "EGORRES",
              "dataType": "text",
              "applicableWhen": [
                "WC.EG.3a146a53"
              ],
              "displayFormat": "8.3",
              "significantDigits": 3
            },
            {
              "OID": "IT.EG.EGORRES.VTTARRY",
              "mandatory": false,
              "name": "EGORRES",
              "dataType": "text",
              "applicableWhen": [
                "WC.EG.5571a969"
              ],
              "displayFormat": "8.3",
              "significantDigits": 3
            },
            {
              "OID": "IT.EG.EGORRES.PRAG",
              "mandatory": false,
              "name": "EGORRES",
              "dataType": "text",
              "applicableWhen": [
                "WC.EG.13a9fd00"
              ],
              "displayFormat": "8.3",
              "significantDigits": 3
            },
            {
              "OID": "IT.EG.EGORRES.QRSAG",
              "mandatory": false,
              "name": "EGORRES",
              "dataType": "text",
              "applicableWhen": [
                "WC.EG.72304c3a"
              ],
              "displayFormat": "8.3",
              "significantDigits": 3
            },
            {
              "OID": "IT.EG.EGORRES.QTAG",
              "mandatory": false,
              "name": "EGORRES",
              "dataType": "text",
              "applicableWhen": [
                "WC.EG.6f155b1d"
              ],
              "displayFormat": "8.3",
              "significantDigits": 3
            },
            {
              "OID": "IT.EG.EGORRES.QTCBAG",
              "mandatory": false,
              "name": "EGORRES",
              "dataType": "text",
              "applicableWhen": [
                "WC.EG.dff815c6"
              ],
              "displayFormat": "8.3",
              "significantDigits": 3
            },
            {
              "OID": "IT.EG.EGORRES.QTCFAG",
              "mandatory": false,
              "name": "EGORRES",
              "dataType": "text",
              "applicableWhen": [
                "WC.EG.e967e1e7"
              ],
              "displayFormat": "8.3",
              "significantDigits": 3
            },
            {
              "OID": "IT.EG.EGORRES.RRAG",
              "mandatory": false,
              "name": "EGORRES",
              "dataType": "text",
              "applicableWhen": [
                "WC.EG.64f26102"
              ],
              "displayFormat": "8.3",
              "significantDigits": 3
            },
            {
              "OID": "IT.EG.EGORRES.EGHRMN",
              "mandatory": false,
              "name": "EGORRES",
              "dataType": "text",
              "applicableWhen": [
                "WC.EG.2ecbdce2"
              ],
              "displayFormat": "8.3",
              "significantDigits": 3
            },
            {
              "OID": "IT.EG.EGORRES.QRS_AXIS",
              "mandatory": false,
              "name": "EGORRES",
              "dataType": "text",
              "applicableWhen": [
                "WC.EG.9ce29aa6"
              ],
              "displayFormat": "8.3",
              "significantDigits": 3
            }
          ]
        },
        {
          "OID": "VL.EG.EGORRESU",
          "name": "VL_EG_EGORRESU",
          "type": "ValueList",
          "items": [
            {
              "OID": "IT.EG.EGORRESU.PRAG",
              "mandatory": false,
              "name": "EGORRESU",
              "dataType": "text",
              "applicableWhen": [
                "WC.EG.cec16291"
              ]
            },
            {
              "OID": "IT.EG.EGORRESU.QRSAG",
              "mandatory": false,
              "name": "EGORRESU",
              "dataType": "text",
              "applicableWhen": [
                "WC.EG.5a1ab0f5"
              ]
            },
            {
              "OID": "IT.EG.EGORRESU.QTAG",
              "mandatory": false,
              "name": "EGORRESU",
              "dataType": "text",
              "applicableWhen": [
                "WC.EG.ddb86367"
              ]
            },
            {
              "OID": "IT.EG.EGORRESU.QTCBAG",
              "mandatory": false,
              "name": "EGORRESU",
              "dataType": "text",
              "applicableWhen": [
                "WC.EG.e847517c"
              ]
            },
            {
              "OID": "IT.EG.EGORRESU.QTCFAG",
              "mandatory": false,
              "name": "EGORRESU",
              "dataType": "text",
              "applicableWhen": [
                "WC.EG.7f463007"
              ]
            },
            {
              "OID": "IT.EG.EGORRESU.RRAG",
              "mandatory": false,
              "name": "EGORRESU",
              "dataType": "text",
              "applicableWhen": [
                "WC.EG.3d1ba9c3"
              ]
            },
            {
              "OID": "IT.EG.EGORRESU.EGHRMN",
              "mandatory": false,
              "name": "EGORRESU",
              "dataType": "text",
              "applicableWhen": [
                "WC.EG.a40eb46d"
              ]
            },
            {
              "OID": "IT.EG.EGORRESU.QRS_AXIS",
              "mandatory": false,
              "name": "EGORRESU",
              "dataType": "text",
              "applicableWhen": [
                "WC.EG.02ebb46f"
              ]
            }
          ]
        }
      ]
    },
    {
      "OID": "IG.CM",
      "name": "CM",
      "description": "Concomitant/Prior Medications",
      "domain": "CM",
      "purpose": "Tabulation",
      "structure": "One record per recorded intervention occurrence or constant-dosing interval per subject",
      "isReferenceData": false,
      "wasDerivedFrom": "ST.SDTMIG",
      "items": [
        {
          "OID": "IT.CM.STUDYID",
          "mandatory": true,
          "name": "STUDYID",
          "description": "Study Identifier",
          "role": "Identifier",
          "dataType": "text"
        },
        {
          "OID": "IT.CM.DOMAIN",
          "mandatory": true,
          "name": "DOMAIN",
          "description": "Domain Abbreviation",
          "role": "Identifier",
          "dataType": "text"
        },
        {
          "OID": "IT.CM.USUBJID",
          "mandatory": true,
          "name": "USUBJID",
          "description": "Unique Subject Identifier",
          "role": "Identifier",
          "dataType": "text"
        },
        {
          "OID": "IT.CM.CMSEQ",
          "mandatory": true,
          "name": "CMSEQ",
          "description": "Sequence Number",
          "role": "Identifier",
          "dataType": "float"
        },
        {
          "OID": "IT.CM.CMTRT",
          "mandatory": true,
          "name": "CMTRT",
          "description": "Reported Name of Drug, Med, or Therapy",
          "role": "Topic",
          "dataType": "text"
        },
        {
          "OID": "IT.CM.CMDECOD",
          "mandatory": false,
          "name": "CMDECOD",
          "description": "Standardized Medication Name",
          "role": "Synonym Qualifier",
          "dataType": "text"
        },
        {
          "OID": "IT.CM.CMCAT",
          "mandatory": false,
          "name": "CMCAT",
          "description": "Category for Medication",
          "role": "Grouping Qualifier",
          "dataType": "text"
        },
        {
          "OID": "IT.CM.CMSCAT",
          "mandatory": false,
          "name": "CMSCAT",
          "description": "Subcategory for Medication",
          "role": "Grouping Qualifier",
          "dataType": "text"
        },
        {
          "OID": "IT.CM.CMPRESP",
          "mandatory": false,
          "name": "CMPRESP",
          "description": "CM Pre-specified",
          "role": "Variable Qualifier",
          "dataType": "text",
          "codeList": "CL.NY"
        },
        {
          "OID": "IT.CM.CMOCCUR",
          "mandatory": false,
          "name": "CMOCCUR",
          "description": "CM Occurrence",
          "role": "Record Qualifier",
          "dataType": "text",
          "codeList": "CL.NY"
        },
        {
          "OID": "IT.CM.CMINDC",
          "mandatory": false,
          "name": "CMINDC",
          "description": "Indication",
          "role": "Record Qualifier",
          "dataType": "text"
        },
        {
          "OID": "IT.CM.CMDOSE",
          "mandatory": false,
          "name": "CMDOSE",
          "description": "Dose per Administration",
          "role": "Record Qualifier",
          "dataType": "float"
        },
        {
          "OID": "IT.CM.CMDOSU",
          "mandatory": false,
          "name": "CMDOSU",
          "description": "Dose Units",
          "role": "Variable Qualifier",
          "dataType": "text",
          "codeList": "CL.UNIT"
        },
        {
          "OID": "IT.CM.CMDOSFRM",
          "mandatory": false,
          "name": "CMDOSFRM",
          "description": "Dose Form",
          "role": "Variable Qualifier",
          "dataType": "text",
          "codeList": "CL.FRM"
        },
        {
          "OID": "IT.CM.CMROUTE",
          "mandatory": false,
          "name": "CMROUTE",
          "description": "Route of Administration",
          "role": "Variable Qualifier",
          "dataType": "text",
          "codeList": "CL.ROUTE"
        },
        {
          "OID": "IT.CM.CMSTDTC",
          "mandatory": false,
          "name": "CMSTDTC",
          "description": "Start Date/Time of Medication",
          "role": "Timing",
          "dataType": "text"
        },
        {
          "OID": "IT.CM.CMENDTC",
          "mandatory": false,
          "name": "CMENDTC",
          "description": "End Date/Time of Medication",
          "role": "Timing",
          "dataType": "text"
        }
      ]
    },
    {
      "OID": "IG.LB",
      "name": "LB",
      "description": "Laboratory Test Results",
      "domain": "LB",
      "purpose": "Tabulation",
      "structure": "One record per lab test per time point per visit per subject",
      "isReferenceData": false,
      "wasDerivedFrom": "ST.SDTMIG",
      "items": [
        {
          "OID": "IT.LB.STUDYID",
          "mandatory": true,
          "name": "STUDYID",
          "description": "Study Identifier",
          "role": "Identifier",
          "dataType": "text"
        },
        {
          "OID": "IT.LB.DOMAIN",
          "mandatory": true,
          "name": "DOMAIN",
          "description": "Domain Abbreviation",
          "role": "Identifier",
          "dataType": "text"
        },
        {
          "OID": "IT.LB.USUBJID",
          "mandatory": true,
          "name": "USUBJID",
          "description": "Unique Subject Identifier",
          "role": "Identifier",
          "dataType": "text"
        },
        {
          "OID": "IT.LB.LBSEQ",
          "mandatory": true,
          "name": "LBSEQ",
          "description": "Sequence Number",
          "role": "Identifier",
          "dataType": "float"
        },
        {
          "OID": "IT.LB.LBTESTCD",
          "mandatory": true,
          "name": "LBTESTCD",
          "description": "Lab Test or Examination Short Name",
          "role": "Topic",
          "dataType": "text",
          "codeList": "CL.LBTESTCD"
        },
        {
          "OID": "IT.LB.LBTEST",
          "mandatory": true,
          "name": "LBTEST",
          "description": "Lab Test or Examination Name",
          "role": "Synonym Qualifier",
          "dataType": "text",
          "codeList": "CL.LBTEST"
        },
        {
          "OID": "IT.LB.LBCAT",
          "mandatory": false,
          "name": "LBCAT",
          "description": "Category for Lab Test",
          "role": "Grouping Qualifier",
          "dataType": "text"
        },
        {
          "OID": "IT.LB.LBORRES",
          "mandatory": false,
          "name": "LBORRES",
          "description": "Result or Finding in Original Units",
          "role": "Result Qualifier",
          "dataType": "text"
        },
        {
          "OID": "IT.LB.LBORRESU",
          "mandatory": false,
          "name": "LBORRESU",
          "description": "Original Units",
          "role": "Variable Qualifier",
          "dataType": "text",
          "codeList": "CL.UNIT"
        },
        {
          "OID": "IT.LB.LBORNRLO",
          "mandatory": false,
          "name": "LBORNRLO",
          "description": "Reference Range Lower Limit in Orig Unit",
          "role": "Variable Qualifier",
          "dataType": "text"
        },
        {
          "OID": "IT.LB.LBORNRHI",
          "mandatory": false,
          "name": "LBORNRHI",
          "description": "Reference Range Upper Limit in Orig Unit",
          "role": "Variable Qualifier",
          "dataType": "text"
        },
        {
          "OID": "IT.LB.LBSTRESC",
          "mandatory": false,
          "name": "LBSTRESC",
          "description": "Character Result/Finding in Std Format",
          "role": "Result Qualifier",
          "dataType": "text",
          "codeList": "CL.LBSTRESC"
        },
        {
          "OID": "IT.LB.LBSTRESN",
          "mandatory": false,
          "name": "LBSTRESN",
          "description": "Numeric Result/Finding in Standard Units",
          "role": "Result Qualifier",
          "dataType": "float"
        },
        {
          "OID": "IT.LB.LBSTRESU",
          "mandatory": false,
          "name": "LBSTRESU",
          "description": "Standard Units",
          "role": "Variable Qualifier",
          "dataType": "text",
          "codeList": "CL.UNIT"
        },
        {
          "OID": "IT.LB.LBSTNRLO",
          "mandatory": false,
          "name": "LBSTNRLO",
          "description": "Reference Range Lower Limit-Std Units",
          "role": "Variable Qualifier",
          "dataType": "float"
        },
        {
          "OID": "IT.LB.LBSTNRHI",
          "mandatory": false,
          "name": "LBSTNRHI",
          "description": "Reference Range Upper Limit-Std Units",
          "role": "Variable Qualifier",
          "dataType": "float"
        },
        {
          "OID": "IT.LB.LBNRIND",
          "mandatory": false,
          "name": "LBNRIND",
          "description": "Reference Range Indicator",
          "role": "Variable Qualifier",
          "dataType": "text",
          "codeList": "CL.NRIND"
        },
        {
          "OID": "IT.LB.LBSPEC",
          "mandatory": false,
          "name": "LBSPEC",
          "description": "Specimen Type",
          "role": "Record Qualifier",
          "dataType": "text",
          "codeList": "CL.SPECTYPE"
        },
        {
          "OID": "IT.LB.LBMETHOD",
          "mandatory": false,
          "name": "LBMETHOD",
          "description": "Method of Test or Examination",
          "role": "Record Qualifier",
          "dataType": "text",
          "codeList": "CL.METHOD"
        },
        {
          "OID": "IT.LB.LBLOBXFL",
          "mandatory": false,
          "name": "LBLOBXFL",
          "description": "Last Observation Before Exposure Flag",
          "role": "Record Qualifier",
          "dataType": "text",
          "codeList": "CL.NY"
        },
        {
          "OID": "IT.LB.LBFAST",
          "mandatory": false,
          "name": "LBFAST",
          "description": "Fasting Status",
          "role": "Record Qualifier",
          "dataType": "text",
          "codeList": "CL.NY"
        },
        {
          "OID": "IT.LB.VISITNUM",
          "mandatory": false,
          "name": "VISITNUM",
          "description": "Visit Number",
          "role": "Timing",
          "dataType": "float"
        },
        {
          "OID": "IT.LB.LBDTC",
          "mandatory": false,
          "name": "LBDTC",
          "description": "Date/Time of Specimen Collection",
          "role": "Timing",
          "dataType": "text"
        }
      ],
      "slices": [
        {
          "OID": "VL.LB.LBORRES",
          "name": "VL_LB_LBORRES",
          "type": "ValueList",
          "items": [
            {
              "OID": "IT.LB.LBORRES.HGB",
              "mandatory": false,
              "name": "LBORRES",
              "dataType": "float",
              "applicableWhen": [
                "WC.LB.c192b07f"
              ],
              "displayFormat": "12.4",
              "significantDigits": 4,
              "origin": {
                "type": "Collected",
                "source": "Vendor"
              }
            },
            {
              "OID": "IT.LB.LBORRES.HCT",
              "mandatory": false,
              "name": "LBORRES",
              "dataType": "float",
              "applicableWhen": [
                "WC.LB.82b97100"
              ],
              "displayFormat": "12.4",
              "significantDigits": 4,
              "origin": {
                "type": "Collected",
                "source": "Vendor"
              }
            },
            {
              "OID": "IT.LB.LBORRES.RBC",
              "mandatory": false,
              "name": "LBORRES",
              "dataType": "float",
              "applicableWhen": [
                "WC.LB.87582e25"
              ],
              "displayFormat": "12.4",
              "significantDigits": 4,
              "origin": {
                "type": "Collected",
                "source": "Vendor"
              }
            },
            {
              "OID": "IT.LB.LBORRES.MCH",
              "mandatory": false,
              "name": "LBORRES",
              "dataType": "float",
              "applicableWhen": [
                "WC.LB.95f4de22"
              ],
              "displayFormat": "12.4",
              "significantDigits": 4,
              "origin": {
                "type": "Collected",
                "source": "Vendor"
              }
            },
            {
              "OID": "IT.LB.LBORRES.MCHC",
              "mandatory": false,
              "name": "LBORRES",
              "dataType": "float",
              "applicableWhen": [
                "WC.LB.92bd1f17"
              ],
              "displayFormat": "12.4",
              "significantDigits": 4,
              "origin": {
                "type": "Collected",
                "source": "Vendor"
              }
            },
            {
              "OID": "IT.LB.LBORRES.MCV",
              "mandatory": false,
              "name": "LBORRES",
              "dataType": "float",
              "applicableWhen": [
                "WC.LB.24c0e2bc"
              ],
              "displayFormat": "12.4",
              "significantDigits": 4,
              "origin": {
                "type": "Collected",
                "source": "Vendor"
              }
            },
            {
              "OID": "IT.LB.LBORRES.WBC",
              "mandatory": false,
              "name": "LBORRES",
              "dataType": "float",
              "applicableWhen": [
                "WC.LB.351df44b"
              ],
              "displayFormat": "12.4",
              "significantDigits": 4,
              "origin": {
                "type": "Collected",
                "source": "Vendor"
              }
            },
            {
              "OID": "IT.LB.LBORRES.NEUTSG",
              "mandatory": false,
              "name": "LBORRES",
              "dataType": "float",
              "applicableWhen": [
                "WC.LB.5f2a0bab"
              ],
              "displayFormat": "12.4",
              "significantDigits": 4,
              "origin": {
                "type": "Collected",
                "source": "Vendor"
              }
            },
            {
              "OID": "IT.LB.LBORRES.NEUTB",
              "mandatory": false,
              "name": "LBORRES",
              "dataType": "float",
              "applicableWhen": [
                "WC.LB.eea0ae49"
              ],
              "displayFormat": "12.4",
              "significantDigits": 4,
              "origin": {
                "type": "Collected",
                "source": "Vendor"
              }
            },
            {
              "OID": "IT.LB.LBORRES.NEUT",
              "mandatory": false,
              "name": "LBORRES",
              "dataType": "float",
              "applicableWhen": [
                "WC.LB.550c7a01"
              ],
              "displayFormat": "12.4",
              "significantDigits": 4,
              "origin": {
                "type": "Collected",
                "source": "Vendor"
              }
            },
            {
              "OID": "IT.LB.LBORRES.MONO",
              "mandatory": false,
              "name": "LBORRES",
              "dataType": "float",
              "applicableWhen": [
                "WC.LB.de4c119b"
              ],
              "displayFormat": "12.4",
              "significantDigits": 4,
              "origin": {
                "type": "Collected",
                "source": "Vendor"
              }
            },
            {
              "OID": "IT.LB.LBORRES.EOS",
              "mandatory": false,
              "name": "LBORRES",
              "dataType": "float",
              "applicableWhen": [
                "WC.LB.a5684311"
              ],
              "displayFormat": "12.4",
              "significantDigits": 4,
              "origin": {
                "type": "Collected",
                "source": "Vendor"
              }
            },
            {
              "OID": "IT.LB.LBORRES.BASO",
              "mandatory": false,
              "name": "LBORRES",
              "dataType": "float",
              "applicableWhen": [
                "WC.LB.7b86c15b"
              ],
              "displayFormat": "12.4",
              "significantDigits": 4,
              "origin": {
                "type": "Collected",
                "source": "Vendor"
              }
            },
            {
              "OID": "IT.LB.LBORRES.PLAT",
              "mandatory": false,
              "name": "LBORRES",
              "dataType": "float",
              "applicableWhen": [
                "WC.LB.3a9d73e1"
              ],
              "displayFormat": "12.4",
              "significantDigits": 4,
              "origin": {
                "type": "Collected",
                "source": "Vendor"
              }
            },
            {
              "OID": "IT.LB.LBORRES.MICROCY",
              "mandatory": false,
              "name": "LBORRES",
              "dataType": "text",
              "applicableWhen": [
                "WC.LB.ddc3319f"
              ],
              "origin": {
                "type": "Collected",
                "source": "Vendor"
              }
            },
            {
              "OID": "IT.LB.LBORRES.MACROCY",
              "mandatory": false,
              "name": "LBORRES",
              "dataType": "text",
              "applicableWhen": [
                "WC.LB.116f85e4"
              ],
              "origin": {
                "type": "Collected",
                "source": "Vendor"
              }
            },
            {
              "OID": "IT.LB.LBORRES.ANISO",
              "mandatory": false,
              "name": "LBORRES",
              "dataType": "text",
              "applicableWhen": [
                "WC.LB.84ceb0ad"
              ],
              "origin": {
                "type": "Collected",
                "source": "Vendor"
              }
            },
            {
              "OID": "IT.LB.LBORRES.POIKILO",
              "mandatory": false,
              "name": "LBORRES",
              "dataType": "text",
              "applicableWhen": [
                "WC.LB.b622c728"
              ],
              "origin": {
                "type": "Collected",
                "source": "Vendor"
              }
            },
            {
              "OID": "IT.LB.LBORRES.POLYCHR",
              "mandatory": false,
              "name": "LBORRES",
              "dataType": "text",
              "applicableWhen": [
                "WC.LB.87b1b367"
              ],
              "origin": {
                "type": "Collected",
                "source": "Vendor"
              }
            },
            {
              "OID": "IT.LB.LBORRES.ALT",
              "mandatory": false,
              "name": "LBORRES",
              "dataType": "float",
              "applicableWhen": [
                "WC.LB.5412b298"
              ],
              "displayFormat": "12.4",
              "significantDigits": 4,
              "origin": {
                "type": "Collected",
                "source": "Vendor"
              }
            },
            {
              "OID": "IT.LB.LBORRES.ALB",
              "mandatory": false,
              "name": "LBORRES",
              "dataType": "text",
              "applicableWhen": [
                "WC.LB.e42a3c09"
              ],
              "significantDigits": 4,
              "origin": {
                "type": "Collected",
                "source": "Vendor"
              }
            },
            {
              "OID": "IT.LB.LBORRES.ALP",
              "mandatory": false,
              "name": "LBORRES",
              "dataType": "float",
              "applicableWhen": [
                "WC.LB.cdac7fcc"
              ],
              "displayFormat": "12.4",
              "significantDigits": 4,
              "origin": {
                "type": "Collected",
                "source": "Vendor"
              }
            },
            {
              "OID": "IT.LB.LBORRES.AST",
              "mandatory": false,
              "name": "LBORRES",
              "dataType": "float",
              "applicableWhen": [
                "WC.LB.b9d7ddba"
              ],
              "displayFormat": "12.4",
              "significantDigits": 4,
              "origin": {
                "type": "Collected",
                "source": "Vendor"
              }
            },
            {
              "OID": "IT.LB.LBORRES.CREAT",
              "mandatory": false,
              "name": "LBORRES",
              "dataType": "float",
              "applicableWhen": [
                "WC.LB.969c1a6d"
              ],
              "displayFormat": "12.4",
              "significantDigits": 4,
              "origin": {
                "type": "Collected",
                "source": "Vendor"
              }
            },
            {
              "OID": "IT.LB.LBORRES.K",
              "mandatory": false,
              "name": "LBORRES",
              "dataType": "float",
              "applicableWhen": [
                "WC.LB.7ce691fd"
              ],
              "displayFormat": "12.4",
              "significantDigits": 4,
              "origin": {
                "type": "Collected",
                "source": "Vendor"
              }
            },
            {
              "OID": "IT.LB.LBORRES.SODIUM",
              "mandatory": false,
              "name": "LBORRES",
              "dataType": "float",
              "applicableWhen": [
                "WC.LB.88601b52"
              ],
              "displayFormat": "12.4",
              "significantDigits": 4,
              "origin": {
                "type": "Collected",
                "source": "Vendor"
              }
            },
            {
              "OID": "IT.LB.LBORRES.UREAN",
              "mandatory": false,
              "name": "LBORRES",
              "dataType": "float",
              "applicableWhen": [
                "WC.LB.42392cd1"
              ],
              "displayFormat": "12.4",
              "significantDigits": 4,
              "origin": {
                "type": "Collected",
                "source": "Vendor"
              }
            },
            {
              "OID": "IT.LB.LBORRES.BICARB",
              "mandatory": false,
              "name": "LBORRES",
              "dataType": "float",
              "applicableWhen": [
                "WC.LB.9279ec22"
              ],
              "displayFormat": "12.4",
              "significantDigits": 4,
              "origin": {
                "type": "Collected",
                "source": "Vendor"
              }
            },
            {
              "OID": "IT.LB.LBORRES.CL",
              "mandatory": false,
              "name": "LBORRES",
              "dataType": "float",
              "applicableWhen": [
                "WC.LB.8b779a3b"
              ],
              "displayFormat": "12.4",
              "significantDigits": 4,
              "origin": {
                "type": "Collected",
                "source": "Vendor"
              }
            },
            {
              "OID": "IT.LB.LBORRES.BILI",
              "mandatory": false,
              "name": "LBORRES",
              "dataType": "text",
              "applicableWhen": [
                "WC.LB.cfe14422"
              ],
              "significantDigits": 4,
              "origin": {
                "type": "Collected",
                "source": "Vendor"
              }
            },
            {
              "OID": "IT.LB.LBORRES.GGT",
              "mandatory": false,
              "name": "LBORRES",
              "dataType": "float",
              "applicableWhen": [
                "WC.LB.8285c765"
              ],
              "displayFormat": "12.4",
              "significantDigits": 4,
              "origin": {
                "type": "Collected",
                "source": "Vendor"
              }
            },
            {
              "OID": "IT.LB.LBORRES.URATE",
              "mandatory": false,
              "name": "LBORRES",
              "dataType": "float",
              "applicableWhen": [
                "WC.LB.37c7b4ba"
              ],
              "displayFormat": "12.4",
              "significantDigits": 4,
              "origin": {
                "type": "Collected",
                "source": "Vendor"
              }
            },
            {
              "OID": "IT.LB.LBORRES.PHOS",
              "mandatory": false,
              "name": "LBORRES",
              "dataType": "float",
              "applicableWhen": [
                "WC.LB.e4e81dc5"
              ],
              "displayFormat": "12.4",
              "significantDigits": 4,
              "origin": {
                "type": "Collected",
                "source": "Vendor"
              }
            },
            {
              "OID": "IT.LB.LBORRES.CA",
              "mandatory": false,
              "name": "LBORRES",
              "dataType": "float",
              "applicableWhen": [
                "WC.LB.470def9b"
              ],
              "displayFormat": "12.4",
              "significantDigits": 4,
              "origin": {
                "type": "Collected",
                "source": "Vendor"
              }
            },
            {
              "OID": "IT.LB.LBORRES.GLUC",
              "mandatory": false,
              "name": "LBORRES",
              "dataType": "text",
              "applicableWhen": [
                "WC.LB.c891c160"
              ]
            },
            {
              "OID": "IT.LB.LBORRES.PROT",
              "mandatory": false,
              "name": "LBORRES",
              "dataType": "text",
              "applicableWhen": [
                "WC.LB.abcfd20c"
              ],
              "significantDigits": 4,
              "origin": {
                "type": "Collected",
                "source": "Vendor"
              }
            },
            {
              "OID": "IT.LB.LBORRES.CHOL",
              "mandatory": false,
              "name": "LBORRES",
              "dataType": "float",
              "applicableWhen": [
                "WC.LB.5a1bca67"
              ],
              "displayFormat": "12.4",
              "significantDigits": 4,
              "origin": {
                "type": "Collected",
                "source": "Vendor"
              }
            },
            {
              "OID": "IT.LB.LBORRES.T3UP",
              "mandatory": false,
              "name": "LBORRES",
              "dataType": "float",
              "applicableWhen": [
                "WC.LB.4226ee02"
              ],
              "displayFormat": "12.4",
              "significantDigits": 4,
              "origin": {
                "type": "Collected",
                "source": "Vendor"
              }
            },
            {
              "OID": "IT.LB.LBORRES.T3",
              "mandatory": false,
              "name": "LBORRES",
              "dataType": "float",
              "applicableWhen": [
                "WC.LB.df33e99e"
              ],
              "displayFormat": "12.4",
              "significantDigits": 4,
              "origin": {
                "type": "Collected",
                "source": "Vendor"
              }
            },
            {
              "OID": "IT.LB.LBORRES.T4FR",
              "mandatory": false,
              "name": "LBORRES",
              "dataType": "float",
              "applicableWhen": [
                "WC.LB.30f3d8b3"
              ],
              "displayFormat": "12.4",
              "significantDigits": 4,
              "origin": {
                "type": "Collected",
                "source": "Vendor"
              }
            },
            {
              "OID": "IT.LB.LBORRES.T4FRIDX",
              "mandatory": false,
              "name": "LBORRES",
              "dataType": "float",
              "applicableWhen": [
                "WC.LB.f59f4529"
              ],
              "displayFormat": "12.4",
              "significantDigits": 4,
              "origin": {
                "type": "Collected",
                "source": "Vendor"
              }
            },
            {
              "OID": "IT.LB.LBORRES.TSH",
              "mandatory": false,
              "name": "LBORRES",
              "dataType": "float",
              "applicableWhen": [
                "WC.LB.c54221c6"
              ],
              "displayFormat": "12.4",
              "significantDigits": 4,
              "origin": {
                "type": "Collected",
                "source": "Vendor"
              }
            },
            {
              "OID": "IT.LB.LBORRES.VITB9",
              "mandatory": false,
              "name": "LBORRES",
              "dataType": "float",
              "applicableWhen": [
                "WC.LB.cb02cad8"
              ],
              "displayFormat": "12.4",
              "significantDigits": 4,
              "origin": {
                "type": "Collected",
                "source": "Vendor"
              }
            },
            {
              "OID": "IT.LB.LBORRES.VITB12",
              "mandatory": false,
              "name": "LBORRES",
              "dataType": "float",
              "applicableWhen": [
                "WC.LB.d0f49556"
              ],
              "displayFormat": "12.4",
              "significantDigits": 4,
              "origin": {
                "type": "Collected",
                "source": "Vendor"
              }
            },
            {
              "OID": "IT.LB.LBORRES.COLOR",
              "mandatory": false,
              "name": "LBORRES",
              "dataType": "text",
              "applicableWhen": [
                "WC.LB.4987b41e"
              ],
              "origin": {
                "type": "Collected",
                "source": "Vendor"
              }
            },
            {
              "OID": "IT.LB.LBORRES.SPGRAV",
              "mandatory": false,
              "name": "LBORRES",
              "dataType": "float",
              "applicableWhen": [
                "WC.LB.cbf789d8"
              ],
              "displayFormat": "12.4",
              "significantDigits": 4,
              "origin": {
                "type": "Collected",
                "source": "Vendor"
              }
            },
            {
              "OID": "IT.LB.LBORRES.KETONES",
              "mandatory": false,
              "name": "LBORRES",
              "dataType": "text",
              "applicableWhen": [
                "WC.LB.3239d7a3"
              ],
              "significantDigits": 4,
              "origin": {
                "type": "Collected",
                "source": "Vendor"
              }
            },
            {
              "OID": "IT.LB.LBORRES.UROBIL",
              "mandatory": false,
              "name": "LBORRES",
              "dataType": "float",
              "applicableWhen": [
                "WC.LB.59366afe"
              ],
              "displayFormat": "12.4",
              "significantDigits": 4,
              "origin": {
                "type": "Collected",
                "source": "Vendor"
              }
            },
            {
              "OID": "IT.LB.LBORRES.OCCBLD",
              "mandatory": false,
              "name": "LBORRES",
              "dataType": "text",
              "applicableWhen": [
                "WC.LB.3adc4566"
              ],
              "significantDigits": 4,
              "origin": {
                "type": "Collected",
                "source": "Vendor"
              }
            },
            {
              "OID": "IT.LB.LBORRES.NITRITE",
              "mandatory": false,
              "name": "LBORRES",
              "dataType": "text",
              "applicableWhen": [
                "WC.LB.59074de1"
              ],
              "significantDigits": 4,
              "origin": {
                "type": "Collected",
                "source": "Vendor"
              }
            },
            {
              "OID": "IT.LB.LBORRES.HBA1C",
              "mandatory": false,
              "name": "LBORRES",
              "dataType": "float",
              "applicableWhen": [
                "WC.LB.c1765eee"
              ],
              "displayFormat": "12.4",
              "significantDigits": 4,
              "origin": {
                "type": "Collected",
                "source": "Vendor"
              }
            },
            {
              "OID": "IT.LB.LBORRES.HBA1CHGB",
              "mandatory": false,
              "name": "LBORRES",
              "dataType": "float",
              "applicableWhen": [
                "WC.LB.dd459ec6"
              ],
              "displayFormat": "12.4",
              "significantDigits": 4,
              "origin": {
                "type": "Collected",
                "source": "Vendor"
              }
            }
          ]
        },
        {
          "OID": "VL.LB.LBORRESU",
          "name": "VL_LB_LBORRESU",
          "type": "ValueList",
          "items": [
            {
              "OID": "IT.LB.LBORRESU.HGB",
              "mandatory": false,
              "name": "LBORRESU",
              "dataType": "text",
              "applicableWhen": [
                "WC.LB.e9a1c33d"
              ]
            },
            {
              "OID": "IT.LB.LBORRESU.HCT",
              "mandatory": false,
              "name": "LBORRESU",
              "dataType": "text",
              "applicableWhen": [
                "WC.LB.7f0975c7"
              ]
            },
            {
              "OID": "IT.LB.LBORRESU.RBC",
              "mandatory": false,
              "name": "LBORRESU",
              "dataType": "text",
              "applicableWhen": [
                "WC.LB.f7f1de35"
              ]
            },
            {
              "OID": "IT.LB.LBORRESU.MCH",
              "mandatory": false,
              "name": "LBORRESU",
              "dataType": "text",
              "applicableWhen": [
                "WC.LB.c32acb17"
              ]
            },
            {
              "OID": "IT.LB.LBORRESU.MCHC",
              "mandatory": false,
              "name": "LBORRESU",
              "dataType": "text",
              "applicableWhen": [
                "WC.LB.eb7f048a"
              ]
            },
            {
              "OID": "IT.LB.LBORRESU.MCV",
              "mandatory": false,
              "name": "LBORRESU",
              "dataType": "text",
              "applicableWhen": [
                "WC.LB.e881d4b5"
              ]
            },
            {
              "OID": "IT.LB.LBORRESU.WBC",
              "mandatory": false,
              "name": "LBORRESU",
              "dataType": "text",
              "applicableWhen": [
                "WC.LB.41785be6"
              ]
            },
            {
              "OID": "IT.LB.LBORRESU.NEUTSG",
              "mandatory": false,
              "name": "LBORRESU",
              "dataType": "text",
              "applicableWhen": [
                "WC.LB.a68e5eaa"
              ]
            },
            {
              "OID": "IT.LB.LBORRESU.NEUTB",
              "mandatory": false,
              "name": "LBORRESU",
              "dataType": "text",
              "applicableWhen": [
                "WC.LB.aad6dbd6"
              ]
            },
            {
              "OID": "IT.LB.LBORRESU.NEUT",
              "mandatory": false,
              "name": "LBORRESU",
              "dataType": "text",
              "applicableWhen": [
                "WC.LB.d13d6578"
              ]
            },
            {
              "OID": "IT.LB.LBORRESU.MONO",
              "mandatory": false,
              "name": "LBORRESU",
              "dataType": "text",
              "applicableWhen": [
                "WC.LB.00e6d228"
              ]
            },
            {
              "OID": "IT.LB.LBORRESU.EOS",
              "mandatory": false,
              "name": "LBORRESU",
              "dataType": "text",
              "applicableWhen": [
                "WC.LB.ef654de1"
              ]
            },
            {
              "OID": "IT.LB.LBORRESU.BASO",
              "mandatory": false,
              "name": "LBORRESU",
              "dataType": "text",
              "applicableWhen": [
                "WC.LB.b6fa6e8d"
              ]
            },
            {
              "OID": "IT.LB.LBORRESU.PLAT",
              "mandatory": false,
              "name": "LBORRESU",
              "dataType": "text",
              "applicableWhen": [
                "WC.LB.90eedf3b"
              ]
            },
            {
              "OID": "IT.LB.LBORRESU.ALT",
              "mandatory": false,
              "name": "LBORRESU",
              "dataType": "text",
              "applicableWhen": [
                "WC.LB.8914eb45"
              ]
            },
            {
              "OID": "IT.LB.LBORRESU.ALP",
              "mandatory": false,
              "name": "LBORRESU",
              "dataType": "text",
              "applicableWhen": [
                "WC.LB.6660e11c"
              ]
            },
            {
              "OID": "IT.LB.LBORRESU.AST",
              "mandatory": false,
              "name": "LBORRESU",
              "dataType": "text",
              "applicableWhen": [
                "WC.LB.37e389df"
              ]
            },
            {
              "OID": "IT.LB.LBORRESU.CREAT",
              "mandatory": false,
              "name": "LBORRESU",
              "dataType": "text",
              "applicableWhen": [
                "WC.LB.549f5ae4"
              ]
            },
            {
              "OID": "IT.LB.LBORRESU.K",
              "mandatory": false,
              "name": "LBORRESU",
              "dataType": "text",
              "applicableWhen": [
                "WC.LB.ee634517"
              ]
            },
            {
              "OID": "IT.LB.LBORRESU.SODIUM",
              "mandatory": false,
              "name": "LBORRESU",
              "dataType": "text",
              "applicableWhen": [
                "WC.LB.07a8daa1"
              ]
            },
            {
              "OID": "IT.LB.LBORRESU.UREAN",
              "mandatory": false,
              "name": "LBORRESU",
              "dataType": "text",
              "applicableWhen": [
                "WC.LB.91d1c3d5"
              ]
            },
            {
              "OID": "IT.LB.LBORRESU.BICARB",
              "mandatory": false,
              "name": "LBORRESU",
              "dataType": "text",
              "applicableWhen": [
                "WC.LB.9df0845c"
              ]
            },
            {
              "OID": "IT.LB.LBORRESU.CL",
              "mandatory": false,
              "name": "LBORRESU",
              "dataType": "text",
              "applicableWhen": [
                "WC.LB.cc8b6004"
              ]
            },
            {
              "OID": "IT.LB.LBORRESU.GGT",
              "mandatory": false,
              "name": "LBORRESU",
              "dataType": "text",
              "applicableWhen": [
                "WC.LB.3c564f36"
              ]
            },
            {
              "OID": "IT.LB.LBORRESU.URATE",
              "mandatory": false,
              "name": "LBORRESU",
              "dataType": "text",
              "applicableWhen": [
                "WC.LB.13fbb1a5"
              ]
            },
            {
              "OID": "IT.LB.LBORRESU.PHOS",
              "mandatory": false,
              "name": "LBORRESU",
              "dataType": "text",
              "applicableWhen": [
                "WC.LB.3749493c"
              ]
            },
            {
              "OID": "IT.LB.LBORRESU.CA",
              "mandatory": false,
              "name": "LBORRESU",
              "dataType": "text",
              "applicableWhen": [
                "WC.LB.38f9f39d"
              ]
            },
            {
              "OID": "IT.LB.LBORRESU.CHOL",
              "mandatory": false,
              "name": "LBORRESU",
              "dataType": "text",
              "applicableWhen": [
                "WC.LB.516f3664"
              ]
            },
            {
              "OID": "IT.LB.LBORRESU.T3UP",
              "mandatory": false,
              "name": "LBORRESU",
              "dataType": "text",
              "applicableWhen": [
                "WC.LB.dcbcbe57"
              ]
            },
            {
              "OID": "IT.LB.LBORRESU.T3",
              "mandatory": false,
              "name": "LBORRESU",
              "dataType": "text",
              "applicableWhen": [
                "WC.LB.b7b215a1"
              ]
            },
            {
              "OID": "IT.LB.LBORRESU.T4FR",
              "mandatory": false,
              "name": "LBORRESU",
              "dataType": "text",
              "applicableWhen": [
                "WC.LB.0f071538"
              ]
            },
            {
              "OID": "IT.LB.LBORRESU.T4FRIDX",
              "mandatory": false,
              "name": "LBORRESU",
              "dataType": "text",
              "applicableWhen": [
                "WC.LB.258e657c"
              ]
            },
            {
              "OID": "IT.LB.LBORRESU.TSH",
              "mandatory": false,
              "name": "LBORRESU",
              "dataType": "text",
              "applicableWhen": [
                "WC.LB.d675561c"
              ]
            },
            {
              "OID": "IT.LB.LBORRESU.VITB9",
              "mandatory": false,
              "name": "LBORRESU",
              "dataType": "text",
              "applicableWhen": [
                "WC.LB.e81938d6"
              ]
            },
            {
              "OID": "IT.LB.LBORRESU.VITB12",
              "mandatory": false,
              "name": "LBORRESU",
              "dataType": "text",
              "applicableWhen": [
                "WC.LB.54dda2d1"
              ]
            },
            {
              "OID": "IT.LB.LBORRESU.UROBIL",
              "mandatory": false,
              "name": "LBORRESU",
              "dataType": "text",
              "applicableWhen": [
                "WC.LB.e6a434ec"
              ]
            },
            {
              "OID": "IT.LB.LBORRESU.HBA1C",
              "mandatory": false,
              "name": "LBORRESU",
              "dataType": "text",
              "applicableWhen": [
                "WC.LB.9e9118c8"
              ]
            },
            {
              "OID": "IT.LB.LBORRESU.HBA1CHGB",
              "mandatory": false,
              "name": "LBORRESU",
              "dataType": "text",
              "applicableWhen": [
                "WC.LB.8644d9ca"
              ]
            }
          ]
        }
      ]
    },
    {
      "OID": "IG.MB",
      "name": "MB",
      "description": "Microbiology Specimen",
      "domain": "MB",
      "purpose": "Tabulation",
      "structure": "One record per microbiology specimen finding per time point per visit per subject",
      "isReferenceData": false,
      "wasDerivedFrom": "ST.SDTMIG",
      "items": [
        {
          "OID": "IT.MB.STUDYID",
          "mandatory": true,
          "name": "STUDYID",
          "description": "Study Identifier",
          "role": "Identifier",
          "dataType": "text"
        },
        {
          "OID": "IT.MB.DOMAIN",
          "mandatory": true,
          "name": "DOMAIN",
          "description": "Domain Abbreviation",
          "role": "Identifier",
          "dataType": "text"
        },
        {
          "OID": "IT.MB.USUBJID",
          "mandatory": true,
          "name": "USUBJID",
          "description": "Unique Subject Identifier",
          "role": "Identifier",
          "dataType": "text"
        },
        {
          "OID": "IT.MB.MBSEQ",
          "mandatory": true,
          "name": "MBSEQ",
          "description": "Sequence Number",
          "role": "Identifier",
          "dataType": "float"
        },
        {
          "OID": "IT.MB.MBTESTCD",
          "mandatory": true,
          "name": "MBTESTCD",
          "description": "Microbiology Test or Finding Short Name",
          "role": "Topic",
          "dataType": "text",
          "codeList": "CL.MBTESTCD"
        },
        {
          "OID": "IT.MB.MBTEST",
          "mandatory": true,
          "name": "MBTEST",
          "description": "Microbiology Test or Finding Name",
          "role": "Synonym Qualifier",
          "dataType": "text",
          "codeList": "CL.MBTEST"
        },
        {
          "OID": "IT.MB.MBTSTDTL",
          "mandatory": false,
          "name": "MBTSTDTL",
          "description": "Measurement, Test or Examination Detail",
          "role": "Variable Qualifier",
          "dataType": "text",
          "codeList": "CL.MBFTSDTL"
        },
        {
          "OID": "IT.MB.MBORRES",
          "mandatory": false,
          "name": "MBORRES",
          "description": "Result or Finding in Original Units",
          "role": "Result Qualifier",
          "dataType": "text"
        },
        {
          "OID": "IT.MB.MBSTRESC",
          "mandatory": false,
          "name": "MBSTRESC",
          "description": "Result or Finding in Standard Format",
          "role": "Result Qualifier",
          "dataType": "text"
        },
        {
          "OID": "IT.MB.MBSPEC",
          "mandatory": false,
          "name": "MBSPEC",
          "description": "Specimen Material Type",
          "role": "Record Qualifier",
          "dataType": "text",
          "codeList": "CL.SPECTYPE"
        },
        {
          "OID": "IT.MB.MBMETHOD",
          "mandatory": false,
          "name": "MBMETHOD",
          "description": "Method of Test or Examination",
          "role": "Record Qualifier",
          "dataType": "text",
          "codeList": "CL.METHOD"
        },
        {
          "OID": "IT.MB.VISITNUM",
          "mandatory": false,
          "name": "VISITNUM",
          "description": "Visit Number",
          "role": "Timing",
          "dataType": "float"
        },
        {
          "OID": "IT.MB.MBDTC",
          "mandatory": false,
          "name": "MBDTC",
          "description": "Date/Time of Collection",
          "role": "Timing",
          "dataType": "text"
        }
      ],
      "slices": [
        {
          "OID": "VL.MB.MBORRES",
          "name": "VL_MB_MBORRES",
          "type": "ValueList",
          "items": [
            {
              "OID": "IT.MB.MBORRES.TPLAB",
              "mandatory": false,
              "name": "MBORRES",
              "dataType": "text",
              "applicableWhen": [
                "WC.MB.49773274"
              ]
            },
            {
              "OID": "IT.MB.MBORRES.TPADNA",
              "mandatory": false,
              "name": "MBORRES",
              "dataType": "text",
              "applicableWhen": [
                "WC.MB.e698c5a2"
              ]
            }
          ]
        }
      ]
    },
    {
      "OID": "IG.EC",
      "name": "EC",
      "description": "Exposure as Collected",
      "domain": "EC",
      "purpose": "Tabulation",
      "structure": "One record per protocol-specified study treatment, collected-dosing interval, per subject, per mood",
      "isReferenceData": false,
      "wasDerivedFrom": "ST.SDTMIG",
      "items": [
        {
          "OID": "IT.EC.STUDYID",
          "mandatory": true,
          "name": "STUDYID",
          "description": "Study Identifier",
          "role": "Identifier",
          "dataType": "text"
        },
        {
          "OID": "IT.EC.DOMAIN",
          "mandatory": true,
          "name": "DOMAIN",
          "description": "Domain Abbreviation",
          "role": "Identifier",
          "dataType": "text"
        },
        {
          "OID": "IT.EC.USUBJID",
          "mandatory": true,
          "name": "USUBJID",
          "description": "Unique Subject Identifier",
          "role": "Identifier",
          "dataType": "text"
        },
        {
          "OID": "IT.EC.ECSEQ",
          "mandatory": true,
          "name": "ECSEQ",
          "description": "Sequence Number",
          "role": "Identifier",
          "dataType": "float"
        },
        {
          "OID": "IT.EC.ECREFID",
          "mandatory": false,
          "name": "ECREFID",
          "description": "Reference ID",
          "role": "Identifier",
          "dataType": "text"
        },
        {
          "OID": "IT.EC.ECTRT",
          "mandatory": true,
          "name": "ECTRT",
          "description": "Name of Treatment",
          "role": "Topic",
          "dataType": "text"
        },
        {
          "OID": "IT.EC.ECDOSE",
          "mandatory": false,
          "name": "ECDOSE",
          "description": "Dose",
          "role": "Record Qualifier",
          "dataType": "float"
        },
        {
          "OID": "IT.EC.ECDOSTXT",
          "mandatory": false,
          "name": "ECDOSTXT",
          "description": "Dose Description",
          "role": "Record Qualifier",
          "dataType": "text"
        },
        {
          "OID": "IT.EC.ECDOSU",
          "mandatory": false,
          "name": "ECDOSU",
          "description": "Dose Units",
          "role": "Variable Qualifier",
          "dataType": "text",
          "codeList": "CL.UNIT"
        },
        {
          "OID": "IT.EC.ECDOSFRM",
          "mandatory": false,
          "name": "ECDOSFRM",
          "description": "Dose Form",
          "role": "Variable Qualifier",
          "dataType": "text",
          "codeList": "CL.FRM"
        },
        {
          "OID": "IT.EC.ECDOSFRQ",
          "mandatory": false,
          "name": "ECDOSFRQ",
          "description": "Dosing Frequency per Interval",
          "role": "Record Qualifier",
          "dataType": "text",
          "codeList": "CL.FREQ"
        },
        {
          "OID": "IT.EC.ECDOSRGM",
          "mandatory": false,
          "name": "ECDOSRGM",
          "description": "Intended Dose Regimen",
          "role": "Record Qualifier",
          "dataType": "text"
        },
        {
          "OID": "IT.EC.ECROUTE",
          "mandatory": false,
          "name": "ECROUTE",
          "description": "Route of Administration",
          "role": "Variable Qualifier",
          "dataType": "text",
          "codeList": "CL.ROUTE"
        },
        {
          "OID": "IT.EC.ECLOC",
          "mandatory": false,
          "name": "ECLOC",
          "description": "Location of Dose Administration",
          "role": "Record Qualifier",
          "dataType": "text",
          "codeList": "CL.LOC"
        },
        {
          "OID": "IT.EC.ECLAT",
          "mandatory": false,
          "name": "ECLAT",
          "description": "Laterality",
          "role": "Variable Qualifier",
          "dataType": "text",
          "codeList": "CL.LAT"
        },
        {
          "OID": "IT.EC.ECDIR",
          "mandatory": false,
          "name": "ECDIR",
          "description": "Directionality",
          "role": "Variable Qualifier",
          "dataType": "text",
          "codeList": "CL.DIR"
        },
        {
          "OID": "IT.EC.ECSTDTC",
          "mandatory": false,
          "name": "ECSTDTC",
          "description": "Start Date/Time of Treatment",
          "role": "Timing",
          "dataType": "text"
        },
        {
          "OID": "IT.EC.ECENDTC",
          "mandatory": false,
          "name": "ECENDTC",
          "description": "End Date/Time of Treatment",
          "role": "Timing",
          "dataType": "text"
        }
      ]
    },
    {
      "OID": "IG.AE",
      "name": "AE",
      "description": "Adverse Events",
      "domain": "AE",
      "purpose": "Tabulation",
      "structure": "One record per adverse event per subject",
      "isReferenceData": false,
      "wasDerivedFrom": "ST.SDTMIG",
      "items": [
        {
          "OID": "IT.AE.STUDYID",
          "mandatory": true,
          "name": "STUDYID",
          "description": "Study Identifier",
          "role": "Identifier",
          "dataType": "text"
        },
        {
          "OID": "IT.AE.DOMAIN",
          "mandatory": true,
          "name": "DOMAIN",
          "description": "Domain Abbreviation",
          "role": "Identifier",
          "dataType": "text"
        },
        {
          "OID": "IT.AE.USUBJID",
          "mandatory": true,
          "name": "USUBJID",
          "description": "Unique Subject Identifier",
          "role": "Identifier",
          "dataType": "text"
        },
        {
          "OID": "IT.AE.AESEQ",
          "mandatory": true,
          "name": "AESEQ",
          "description": "Sequence Number",
          "role": "Identifier",
          "dataType": "float"
        },
        {
          "OID": "IT.AE.AETERM",
          "mandatory": true,
          "name": "AETERM",
          "description": "Reported Term for the Adverse Event",
          "role": "Topic",
          "dataType": "text"
        },
        {
          "OID": "IT.AE.AELLT",
          "mandatory": false,
          "name": "AELLT",
          "description": "Lowest Level Term",
          "role": "Variable Qualifier",
          "dataType": "text"
        },
        {
          "OID": "IT.AE.AELLTCD",
          "mandatory": false,
          "name": "AELLTCD",
          "description": "Lowest Level Term Code",
          "role": "Variable Qualifier",
          "dataType": "float"
        },
        {
          "OID": "IT.AE.AEDECOD",
          "mandatory": true,
          "name": "AEDECOD",
          "description": "Dictionary-Derived Term",
          "role": "Synonym Qualifier",
          "dataType": "text"
        },
        {
          "OID": "IT.AE.AEPTCD",
          "mandatory": false,
          "name": "AEPTCD",
          "description": "Preferred Term Code",
          "role": "Variable Qualifier",
          "dataType": "float"
        },
        {
          "OID": "IT.AE.AEHLT",
          "mandatory": false,
          "name": "AEHLT",
          "description": "High Level Term",
          "role": "Variable Qualifier",
          "dataType": "text"
        },
        {
          "OID": "IT.AE.AEHLTCD",
          "mandatory": false,
          "name": "AEHLTCD",
          "description": "High Level Term Code",
          "role": "Variable Qualifier",
          "dataType": "float"
        },
        {
          "OID": "IT.AE.AEHLGT",
          "mandatory": false,
          "name": "AEHLGT",
          "description": "High Level Group Term",
          "role": "Variable Qualifier",
          "dataType": "text"
        },
        {
          "OID": "IT.AE.AEHLGTCD",
          "mandatory": false,
          "name": "AEHLGTCD",
          "description": "High Level Group Term Code",
          "role": "Variable Qualifier",
          "dataType": "float"
        },
        {
          "OID": "IT.AE.AECAT",
          "mandatory": false,
          "name": "AECAT",
          "description": "Category for Adverse Event",
          "role": "Grouping Qualifier",
          "dataType": "text"
        },
        {
          "OID": "IT.AE.AESCAT",
          "mandatory": false,
          "name": "AESCAT",
          "description": "Subcategory for Adverse Event",
          "role": "Grouping Qualifier",
          "dataType": "text"
        },
        {
          "OID": "IT.AE.AEPRESP",
          "mandatory": false,
          "name": "AEPRESP",
          "description": "Pre-Specified Adverse Event",
          "role": "Variable Qualifier",
          "dataType": "text",
          "codeList": "CL.NY"
        },
        {
          "OID": "IT.AE.AEBODSYS",
          "mandatory": false,
          "name": "AEBODSYS",
          "description": "Body System or Organ Class",
          "role": "Record Qualifier",
          "dataType": "text"
        },
        {
          "OID": "IT.AE.AEBDSYCD",
          "mandatory": false,
          "name": "AEBDSYCD",
          "description": "Body System or Organ Class Code",
          "role": "Variable Qualifier",
          "dataType": "float"
        },
        {
          "OID": "IT.AE.AESOC",
          "mandatory": false,
          "name": "AESOC",
          "description": "Primary System Organ Class",
          "role": "Variable Qualifier",
          "dataType": "text"
        },
        {
          "OID": "IT.AE.AESOCCD",
          "mandatory": false,
          "name": "AESOCCD",
          "description": "Primary System Organ Class Code",
          "role": "Variable Qualifier",
          "dataType": "float"
        },
        {
          "OID": "IT.AE.AELOC",
          "mandatory": false,
          "name": "AELOC",
          "description": "Location of Event",
          "role": "Record Qualifier",
          "dataType": "text",
          "codeList": "CL.LOC"
        },
        {
          "OID": "IT.AE.AESEV",
          "mandatory": false,
          "name": "AESEV",
          "description": "Severity/Intensity",
          "role": "Record Qualifier",
          "dataType": "text",
          "codeList": "CL.AESEV"
        },
        {
          "OID": "IT.AE.AESER",
          "mandatory": false,
          "name": "AESER",
          "description": "Serious Event",
          "role": "Record Qualifier",
          "dataType": "text",
          "codeList": "CL.NY"
        },
        {
          "OID": "IT.AE.AEACN",
          "mandatory": false,
          "name": "AEACN",
          "description": "Action Taken with Study Treatment",
          "role": "Record Qualifier",
          "dataType": "text",
          "codeList": "CL.ACN"
        },
        {
          "OID": "IT.AE.AEACNOTH",
          "mandatory": false,
          "name": "AEACNOTH",
          "description": "Other Action Taken",
          "role": "Record Qualifier",
          "dataType": "text"
        },
        {
          "OID": "IT.AE.AEREL",
          "mandatory": false,
          "name": "AEREL",
          "description": "Causality",
          "role": "Record Qualifier",
          "dataType": "text"
        },
        {
          "OID": "IT.AE.AERELNST",
          "mandatory": false,
          "name": "AERELNST",
          "description": "Relationship to Non-Study Treatment",
          "role": "Record Qualifier",
          "dataType": "text"
        },
        {
          "OID": "IT.AE.AEPATT",
          "mandatory": false,
          "name": "AEPATT",
          "description": "Pattern of Adverse Event",
          "role": "Record Qualifier",
          "dataType": "text"
        },
        {
          "OID": "IT.AE.AEOUT",
          "mandatory": false,
          "name": "AEOUT",
          "description": "Outcome of Adverse Event",
          "role": "Record Qualifier",
          "dataType": "text",
          "codeList": "CL.OUT"
        },
        {
          "OID": "IT.AE.AESCAN",
          "mandatory": false,
          "name": "AESCAN",
          "description": "Involves Cancer",
          "role": "Record Qualifier",
          "dataType": "text",
          "codeList": "CL.NY"
        },
        {
          "OID": "IT.AE.AESCONG",
          "mandatory": false,
          "name": "AESCONG",
          "description": "Congenital Anomaly or Birth Defect",
          "role": "Record Qualifier",
          "dataType": "text",
          "codeList": "CL.NY"
        },
        {
          "OID": "IT.AE.AESDISAB",
          "mandatory": false,
          "name": "AESDISAB",
          "description": "Persist or Signif Disability/Incapacity",
          "role": "Record Qualifier",
          "dataType": "text",
          "codeList": "CL.NY"
        },
        {
          "OID": "IT.AE.AESDTH",
          "mandatory": false,
          "name": "AESDTH",
          "description": "Results in Death",
          "role": "Record Qualifier",
          "dataType": "text",
          "codeList": "CL.NY"
        },
        {
          "OID": "IT.AE.AESHOSP",
          "mandatory": false,
          "name": "AESHOSP",
          "description": "Requires or Prolongs Hospitalization",
          "role": "Record Qualifier",
          "dataType": "text",
          "codeList": "CL.NY"
        },
        {
          "OID": "IT.AE.AESLIFE",
          "mandatory": false,
          "name": "AESLIFE",
          "description": "Is Life Threatening",
          "role": "Record Qualifier",
          "dataType": "text",
          "codeList": "CL.NY"
        },
        {
          "OID": "IT.AE.AESOD",
          "mandatory": false,
          "name": "AESOD",
          "description": "Occurred with Overdose",
          "role": "Record Qualifier",
          "dataType": "text",
          "codeList": "CL.NY"
        },
        {
          "OID": "IT.AE.AESMIE",
          "mandatory": false,
          "name": "AESMIE",
          "description": "Other Medically Important Serious Event",
          "role": "Record Qualifier",
          "dataType": "text",
          "codeList": "CL.NY"
        },
        {
          "OID": "IT.AE.AECONTRT",
          "mandatory": false,
          "name": "AECONTRT",
          "description": "Concomitant or Additional Trtmnt Given",
          "role": "Record Qualifier",
          "dataType": "text",
          "codeList": "CL.NY"
        },
        {
          "OID": "IT.AE.AETOXGR",
          "mandatory": false,
          "name": "AETOXGR",
          "description": "Standard Toxicity Grade",
          "role": "Record Qualifier",
          "dataType": "text"
        },
        {
          "OID": "IT.AE.AESTDTC",
          "mandatory": false,
          "name": "AESTDTC",
          "description": "Start Date/Time of Adverse Event",
          "role": "Timing",
          "dataType": "text"
        },
        {
          "OID": "IT.AE.AEENDTC",
          "mandatory": false,
          "name": "AEENDTC",
          "description": "End Date/Time of Adverse Event",
          "role": "Timing",
          "dataType": "text"
        },
        {
          "OID": "IT.AE.AEENRF",
          "mandatory": false,
          "name": "AEENRF",
          "description": "End Relative to Reference Period",
          "role": "Timing",
          "dataType": "text",
          "codeList": "CL.STENRF"
        },
        {
          "OID": "IT.AE.AEENRTPT",
          "mandatory": false,
          "name": "AEENRTPT",
          "description": "End Relative to Reference Time Point",
          "role": "Timing",
          "dataType": "text",
          "codeList": "CL.STENRF"
        },
        {
          "OID": "IT.AE.AEENTPT",
          "mandatory": false,
          "name": "AEENTPT",
          "description": "End Reference Time Point",
          "role": "Timing",
          "dataType": "text"
        }
      ]
    },
    {
      "OID": "IG.IE",
      "name": "IE",
      "description": "Inclusion/Exclusion Criteria Not Met",
      "domain": "IE",
      "purpose": "Tabulation",
      "structure": "One record per inclusion/exclusion criterion not met per subject",
      "isReferenceData": false,
      "wasDerivedFrom": "ST.SDTMIG",
      "items": [
        {
          "OID": "IT.IE.STUDYID",
          "mandatory": true,
          "name": "STUDYID",
          "description": "Study Identifier",
          "role": "Identifier",
          "dataType": "text"
        },
        {
          "OID": "IT.IE.DOMAIN",
          "mandatory": true,
          "name": "DOMAIN",
          "description": "Domain Abbreviation",
          "role": "Identifier",
          "dataType": "text"
        },
        {
          "OID": "IT.IE.USUBJID",
          "mandatory": true,
          "name": "USUBJID",
          "description": "Unique Subject Identifier",
          "role": "Identifier",
          "dataType": "text"
        },
        {
          "OID": "IT.IE.IESEQ",
          "mandatory": true,
          "name": "IESEQ",
          "description": "Sequence Number",
          "role": "Identifier",
          "dataType": "float"
        },
        {
          "OID": "IT.IE.IETESTCD",
          "mandatory": true,
          "name": "IETESTCD",
          "description": "Inclusion/Exclusion Criterion Short Name",
          "role": "Topic",
          "dataType": "text",
          "codeList": "CL.IETESTCD"
        },
        {
          "OID": "IT.IE.IETEST",
          "mandatory": true,
          "name": "IETEST",
          "description": "Inclusion/Exclusion Criterion",
          "role": "Synonym Qualifier",
          "dataType": "text",
          "codeList": "CL.IETEST"
        },
        {
          "OID": "IT.IE.IECAT",
          "mandatory": true,
          "name": "IECAT",
          "description": "Inclusion/Exclusion Category",
          "role": "Grouping Qualifier",
          "dataType": "text",
          "codeList": "CL.IECAT"
        },
        {
          "OID": "IT.IE.IEORRES",
          "mandatory": true,
          "name": "IEORRES",
          "description": "I/E Criterion Original Result",
          "role": "Result Qualifier",
          "dataType": "text",
          "codeList": "CL.NY"
        },
        {
          "OID": "IT.IE.IESTRESC",
          "mandatory": true,
          "name": "IESTRESC",
          "description": "I/E Criterion Result in Std Format",
          "role": "Result Qualifier",
          "dataType": "text",
          "codeList": "CL.NY"
        }
      ],
      "slices": [
        {
          "OID": "VL.IE.IEORRES",
          "name": "VL_IE_IEORRES",
          "type": "ValueList",
          "items": [
            {
              "OID": "IT.IE.IEORRES.IN01",
              "mandatory": false,
              "name": "IEORRES",
              "dataType": "text",
              "applicableWhen": [
                "WC.IE.1d2bb25f"
              ],
              "origin": {
                "type": "Collected",
                "source": "Investigator"
              }
            },
            {
              "OID": "IT.IE.IEORRES.IN02",
              "mandatory": false,
              "name": "IEORRES",
              "dataType": "text",
              "applicableWhen": [
                "WC.IE.fa688bf3"
              ],
              "origin": {
                "type": "Collected",
                "source": "Investigator"
              }
            },
            {
              "OID": "IT.IE.IEORRES.IN03",
              "mandatory": false,
              "name": "IEORRES",
              "dataType": "text",
              "applicableWhen": [
                "WC.IE.f276b607"
              ],
              "origin": {
                "type": "Collected",
                "source": "Investigator"
              }
            },
            {
              "OID": "IT.IE.IEORRES.IN04",
              "mandatory": false,
              "name": "IEORRES",
              "dataType": "text",
              "applicableWhen": [
                "WC.IE.cd528448"
              ],
              "origin": {
                "type": "Collected",
                "source": "Investigator"
              }
            },
            {
              "OID": "IT.IE.IEORRES.IN05",
              "mandatory": false,
              "name": "IEORRES",
              "dataType": "text",
              "applicableWhen": [
                "WC.IE.c1db3fd3"
              ],
              "origin": {
                "type": "Collected",
                "source": "Investigator"
              }
            },
            {
              "OID": "IT.IE.IEORRES.IN06",
              "mandatory": false,
              "name": "IEORRES",
              "dataType": "text",
              "applicableWhen": [
                "WC.IE.c2ec614b"
              ],
              "origin": {
                "type": "Collected",
                "source": "Investigator"
              }
            },
            {
              "OID": "IT.IE.IEORRES.IN07",
              "mandatory": false,
              "name": "IEORRES",
              "dataType": "text",
              "applicableWhen": [
                "WC.IE.2ef341aa"
              ],
              "origin": {
                "type": "Collected",
                "source": "Investigator"
              }
            },
            {
              "OID": "IT.IE.IEORRES.IN08",
              "mandatory": false,
              "name": "IEORRES",
              "dataType": "text",
              "applicableWhen": [
                "WC.IE.5d85184b"
              ],
              "origin": {
                "type": "Collected",
                "source": "Investigator"
              }
            },
            {
              "OID": "IT.IE.IEORRES.EX01",
              "mandatory": false,
              "name": "IEORRES",
              "dataType": "text",
              "applicableWhen": [
                "WC.IE.8579104c"
              ],
              "origin": {
                "type": "Collected",
                "source": "Investigator"
              }
            },
            {
              "OID": "IT.IE.IEORRES.EX02",
              "mandatory": false,
              "name": "IEORRES",
              "dataType": "text",
              "applicableWhen": [
                "WC.IE.74eacc45"
              ],
              "origin": {
                "type": "Collected",
                "source": "Investigator"
              }
            },
            {
              "OID": "IT.IE.IEORRES.EX03",
              "mandatory": false,
              "name": "IEORRES",
              "dataType": "text",
              "applicableWhen": [
                "WC.IE.ce0e8d09"
              ],
              "origin": {
                "type": "Collected",
                "source": "Investigator"
              }
            },
            {
              "OID": "IT.IE.IEORRES.EX04",
              "mandatory": false,
              "name": "IEORRES",
              "dataType": "text",
              "applicableWhen": [
                "WC.IE.945bafbd"
              ],
              "origin": {
                "type": "Collected",
                "source": "Investigator"
              }
            },
            {
              "OID": "IT.IE.IEORRES.EX05",
              "mandatory": false,
              "name": "IEORRES",
              "dataType": "text",
              "applicableWhen": [
                "WC.IE.afbec960"
              ],
              "origin": {
                "type": "Collected",
                "source": "Investigator"
              }
            },
            {
              "OID": "IT.IE.IEORRES.EX06",
              "mandatory": false,
              "name": "IEORRES",
              "dataType": "text",
              "applicableWhen": [
                "WC.IE.cac0d3f4"
              ],
              "origin": {
                "type": "Collected",
                "source": "Investigator"
              }
            },
            {
              "OID": "IT.IE.IEORRES.EX07",
              "mandatory": false,
              "name": "IEORRES",
              "dataType": "text",
              "applicableWhen": [
                "WC.IE.cabd9be0"
              ],
              "origin": {
                "type": "Collected",
                "source": "Investigator"
              }
            },
            {
              "OID": "IT.IE.IEORRES.EX08",
              "mandatory": false,
              "name": "IEORRES",
              "dataType": "text",
              "applicableWhen": [
                "WC.IE.fbae7983"
              ],
              "origin": {
                "type": "Collected",
                "source": "Investigator"
              }
            },
            {
              "OID": "IT.IE.IEORRES.EX09",
              "mandatory": false,
              "name": "IEORRES",
              "dataType": "text",
              "applicableWhen": [
                "WC.IE.0952c014"
              ],
              "origin": {
                "type": "Collected",
                "source": "Investigator"
              }
            },
            {
              "OID": "IT.IE.IEORRES.EX10",
              "mandatory": false,
              "name": "IEORRES",
              "dataType": "text",
              "applicableWhen": [
                "WC.IE.5b8b02b2"
              ],
              "origin": {
                "type": "Collected",
                "source": "Investigator"
              }
            },
            {
              "OID": "IT.IE.IEORRES.EX11",
              "mandatory": false,
              "name": "IEORRES",
              "dataType": "text",
              "applicableWhen": [
                "WC.IE.70a941e7"
              ],
              "origin": {
                "type": "Collected",
                "source": "Investigator"
              }
            },
            {
              "OID": "IT.IE.IEORRES.EX12",
              "mandatory": false,
              "name": "IEORRES",
              "dataType": "text",
              "applicableWhen": [
                "WC.IE.611f5d7b"
              ],
              "origin": {
                "type": "Collected",
                "source": "Investigator"
              }
            },
            {
              "OID": "IT.IE.IEORRES.EX13",
              "mandatory": false,
              "name": "IEORRES",
              "dataType": "text",
              "applicableWhen": [
                "WC.IE.8abff918"
              ],
              "origin": {
                "type": "Collected",
                "source": "Investigator"
              }
            },
            {
              "OID": "IT.IE.IEORRES.EX14",
              "mandatory": false,
              "name": "IEORRES",
              "dataType": "text",
              "applicableWhen": [
                "WC.IE.b089a2a0"
              ],
              "origin": {
                "type": "Collected",
                "source": "Investigator"
              }
            },
            {
              "OID": "IT.IE.IEORRES.EX15",
              "mandatory": false,
              "name": "IEORRES",
              "dataType": "text",
              "applicableWhen": [
                "WC.IE.39cb2456"
              ],
              "origin": {
                "type": "Collected",
                "source": "Investigator"
              }
            },
            {
              "OID": "IT.IE.IEORRES.EX16",
              "mandatory": false,
              "name": "IEORRES",
              "dataType": "text",
              "applicableWhen": [
                "WC.IE.2cdb5c18"
              ],
              "origin": {
                "type": "Collected",
                "source": "Investigator"
              }
            },
            {
              "OID": "IT.IE.IEORRES.EX17",
              "mandatory": false,
              "name": "IEORRES",
              "dataType": "text",
              "applicableWhen": [
                "WC.IE.b415f3a9"
              ],
              "origin": {
                "type": "Collected",
                "source": "Investigator"
              }
            },
            {
              "OID": "IT.IE.IEORRES.EX18",
              "mandatory": false,
              "name": "IEORRES",
              "dataType": "text",
              "applicableWhen": [
                "WC.IE.5c29f970"
              ],
              "origin": {
                "type": "Collected",
                "source": "Investigator"
              }
            },
            {
              "OID": "IT.IE.IEORRES.EX19",
              "mandatory": false,
              "name": "IEORRES",
              "dataType": "text",
              "applicableWhen": [
                "WC.IE.9fe9a358"
              ],
              "origin": {
                "type": "Collected",
                "source": "Investigator"
              }
            },
            {
              "OID": "IT.IE.IEORRES.EX20",
              "mandatory": false,
              "name": "IEORRES",
              "dataType": "text",
              "applicableWhen": [
                "WC.IE.e36b210b"
              ],
              "origin": {
                "type": "Collected",
                "source": "Investigator"
              }
            },
            {
              "OID": "IT.IE.IEORRES.EX21",
              "mandatory": false,
              "name": "IEORRES",
              "dataType": "text",
              "applicableWhen": [
                "WC.IE.743b4fb5"
              ],
              "origin": {
                "type": "Collected",
                "source": "Investigator"
              }
            },
            {
              "OID": "IT.IE.IEORRES.EX22",
              "mandatory": false,
              "name": "IEORRES",
              "dataType": "text",
              "applicableWhen": [
                "WC.IE.76a82754"
              ],
              "origin": {
                "type": "Collected",
                "source": "Investigator"
              }
            },
            {
              "OID": "IT.IE.IEORRES.EX23",
              "mandatory": false,
              "name": "IEORRES",
              "dataType": "text",
              "applicableWhen": [
                "WC.IE.fbeb5a1e"
              ],
              "origin": {
                "type": "Collected",
                "source": "Investigator"
              }
            }
          ]
        }
      ]
    },
    {
      "OID": "IG.SE",
      "name": "SE",
      "description": "Subject Elements",
      "domain": "SE",
      "purpose": "Tabulation",
      "structure": "One record per actual Element per subject",
      "isReferenceData": false,
      "wasDerivedFrom": "ST.SDTMIG",
      "items": [
        {
          "OID": "IT.SE.STUDYID",
          "mandatory": true,
          "name": "STUDYID",
          "description": "Study Identifier",
          "role": "Identifier",
          "dataType": "text"
        },
        {
          "OID": "IT.SE.DOMAIN",
          "mandatory": true,
          "name": "DOMAIN",
          "description": "Domain Abbreviation",
          "role": "Identifier",
          "dataType": "text"
        },
        {
          "OID": "IT.SE.USUBJID",
          "mandatory": true,
          "name": "USUBJID",
          "description": "Unique Subject Identifier",
          "role": "Identifier",
          "dataType": "text"
        },
        {
          "OID": "IT.SE.SESEQ",
          "mandatory": true,
          "name": "SESEQ",
          "description": "Sequence Number",
          "role": "Identifier",
          "dataType": "float"
        },
        {
          "OID": "IT.SE.ETCD",
          "mandatory": true,
          "name": "ETCD",
          "description": "Element Code",
          "role": "Topic",
          "dataType": "text",
          "codeList": "CL.ETCD"
        },
        {
          "OID": "IT.SE.ELEMENT",
          "mandatory": false,
          "name": "ELEMENT",
          "description": "Description of Element",
          "role": "Synonym Qualifier",
          "dataType": "text",
          "codeList": "CL.ELEMENT"
        },
        {
          "OID": "IT.SE.SESTDTC",
          "mandatory": true,
          "name": "SESTDTC",
          "description": "Start Date/Time of Element",
          "role": "Timing",
          "dataType": "text"
        },
        {
          "OID": "IT.SE.SEENDTC",
          "mandatory": false,
          "name": "SEENDTC",
          "description": "End Date/Time of Element",
          "role": "Timing",
          "dataType": "text"
        }
      ],
      "slices": [
        {
          "OID": "VL.SE.SEENDTC",
          "name": "VL_SE_SEENDTC",
          "type": "ValueList",
          "items": [
            {
              "OID": "IT.SE.SEENDTC.EL1",
              "mandatory": false,
              "name": "SEENDTC",
              "dataType": "datetime",
              "applicableWhen": [
                "WC.SE.4566c7e6"
              ],
              "origin": {
                "type": "Collected",
                "source": "Investigator"
              }
            },
            {
              "OID": "IT.SE.SEENDTC.EL2",
              "mandatory": false,
              "name": "SEENDTC",
              "dataType": "datetime",
              "applicableWhen": [
                "WC.SE.a172aab3"
              ],
              "origin": {
                "type": "Collected",
                "source": "Investigator"
              }
            },
            {
              "OID": "IT.SE.SEENDTC.EL7",
              "mandatory": false,
              "name": "SEENDTC",
              "dataType": "datetime",
              "applicableWhen": [
                "WC.SE.7fb0f4fe"
              ],
              "origin": {
                "type": "Collected",
                "source": "Investigator"
              }
            },
            {
              "OID": "IT.SE.SEENDTC.EL3",
              "mandatory": false,
              "name": "SEENDTC",
              "dataType": "datetime",
              "applicableWhen": [
                "WC.SE.8edcd91c"
              ],
              "origin": {
                "type": "Collected",
                "source": "Investigator"
              }
            },
            {
              "OID": "IT.SE.SEENDTC.EL4",
              "mandatory": false,
              "name": "SEENDTC",
              "dataType": "datetime",
              "applicableWhen": [
                "WC.SE.8a354977"
              ],
              "origin": {
                "type": "Collected",
                "source": "Investigator"
              }
            },
            {
              "OID": "IT.SE.SEENDTC.EL5",
              "mandatory": false,
              "name": "SEENDTC",
              "dataType": "datetime",
              "applicableWhen": [
                "WC.SE.be405067"
              ],
              "origin": {
                "type": "Collected",
                "source": "Investigator"
              }
            },
            {
              "OID": "IT.SE.SEENDTC.EL6",
              "mandatory": false,
              "name": "SEENDTC",
              "dataType": "datetime",
              "applicableWhen": [
                "WC.SE.ac9f11bb"
              ],
              "origin": {
                "type": "Collected",
                "source": "Investigator"
              }
            }
          ]
        },
        {
          "OID": "VL.SE.SESTDTC",
          "name": "VL_SE_SESTDTC",
          "type": "ValueList",
          "items": [
            {
              "OID": "IT.SE.SESTDTC.EL1",
              "mandatory": false,
              "name": "SESTDTC",
              "dataType": "datetime",
              "applicableWhen": [
                "WC.SE.ef0bfe06"
              ],
              "origin": {
                "type": "Collected",
                "source": "Investigator"
              }
            },
            {
              "OID": "IT.SE.SESTDTC.EL2",
              "mandatory": false,
              "name": "SESTDTC",
              "dataType": "datetime",
              "applicableWhen": [
                "WC.SE.fd73ada9"
              ],
              "origin": {
                "type": "Collected",
                "source": "Investigator"
              }
            },
            {
              "OID": "IT.SE.SESTDTC.EL7",
              "mandatory": false,
              "name": "SESTDTC",
              "dataType": "datetime",
              "applicableWhen": [
                "WC.SE.7f36565b"
              ],
              "origin": {
                "type": "Collected",
                "source": "Investigator"
              }
            },
            {
              "OID": "IT.SE.SESTDTC.EL3",
              "mandatory": false,
              "name": "SESTDTC",
              "dataType": "datetime",
              "applicableWhen": [
                "WC.SE.e02c83c0"
              ],
              "origin": {
                "type": "Collected",
                "source": "Investigator"
              }
            },
            {
              "OID": "IT.SE.SESTDTC.EL4",
              "mandatory": false,
              "name": "SESTDTC",
              "dataType": "datetime",
              "applicableWhen": [
                "WC.SE.0f456498"
              ],
              "origin": {
                "type": "Collected",
                "source": "Investigator"
              }
            },
            {
              "OID": "IT.SE.SESTDTC.EL5",
              "mandatory": false,
              "name": "SESTDTC",
              "dataType": "datetime",
              "applicableWhen": [
                "WC.SE.64e8e407"
              ],
              "origin": {
                "type": "Collected",
                "source": "Investigator"
              }
            },
            {
              "OID": "IT.SE.SESTDTC.EL6",
              "mandatory": false,
              "name": "SESTDTC",
              "dataType": "datetime",
              "applicableWhen": [
                "WC.SE.8d2f7b81"
              ],
              "origin": {
                "type": "Collected",
                "source": "Investigator"
              }
            }
          ]
        }
      ]
    }
  ],
  "conditions": [
    {
      "OID": "COND.SC.SCTESTCD.78088212",
      "rangeChecks": [
        {
          "comparator": "EQ",
          "checkValues": [
            "EDULEVEL"
          ],
          "item": "IT.SC.SCTESTCD",
          "softHard": "Soft"
        }
      ]
    },
    {
      "OID": "COND.SC.SCTESTCD.7cb4808a",
      "rangeChecks": [
        {
          "comparator": "EQ",
          "checkValues": [
            "EDUYRNUM"
          ],
          "item": "IT.SC.SCTESTCD",
          "softHard": "Soft"
        }
      ]
    },
    {
      "OID": "COND.VS.VSTESTCD.3cd24c45",
      "rangeChecks": [
        {
          "comparator": "EQ",
          "checkValues": [
            "TEMP"
          ],
          "item": "IT.VS.VSTESTCD",
          "softHard": "Soft"
        }
      ]
    },
    {
      "OID": "COND.VS.VSLOC.e14ab3ef",
      "rangeChecks": [
        {
          "comparator": "IN",
          "checkValues": [
            "AXILLA",
            "EAR",
            "FOREHEAD",
            "ORAL CAVITY",
            "RECTUM"
          ],
          "item": "IT.VS.VSLOC",
          "softHard": "Soft"
        }
      ]
    },
    {
      "OID": "COND.VS.VSTESTCD.3065ea60",
      "rangeChecks": [
        {
          "comparator": "EQ",
          "checkValues": [
            "WEIGHT"
          ],
          "item": "IT.VS.VSTESTCD",
          "softHard": "Soft"
        }
      ]
    },
    {
      "OID": "COND.VS.VSTESTCD.9c8495d2",
      "rangeChecks": [
        {
          "comparator": "EQ",
          "checkValues": [
            "HEIGHT"
          ],
          "item": "IT.VS.VSTESTCD",
          "softHard": "Soft"
        }
      ]
    },
    {
      "OID": "COND.VS.VSTESTCD.903f5a52",
      "rangeChecks": [
        {
          "comparator": "EQ",
          "checkValues": [
            "PULSE"
          ],
          "item": "IT.VS.VSTESTCD",
          "softHard": "Soft"
        }
      ]
    },
    {
      "OID": "COND.VS.VSPOS.24ef7406",
      "rangeChecks": [
        {
          "comparator": "IN",
          "checkValues": [
            "PRONE",
            "SEMI-RECUMBENT",
            "SITTING",
            "STANDING",
            "SUPINE"
          ],
          "item": "IT.VS.VSPOS",
          "softHard": "Soft"
        }
      ]
    },
    {
      "OID": "COND.VS.VSLOC.9b0f4929",
      "rangeChecks": [
        {
          "comparator": "IN",
          "checkValues": [
            "BRACHIAL ARTERY",
            "CAROTID ARTERY",
            "CEREBRAL ARTERY",
            "DORSALIS PEDIS ARTERY",
            "FEMORAL ARTERY",
            "RADIAL ARTERY"
          ],
          "item": "IT.VS.VSLOC",
          "softHard": "Soft"
        }
      ]
    },
    {
      "OID": "COND.VS.VSLAT.934ef850",
      "rangeChecks": [
        {
          "comparator": "IN",
          "checkValues": [
            "LEFT",
            "RIGHT"
          ],
          "item": "IT.VS.VSLAT",
          "softHard": "Soft"
        }
      ]
    },
    {
      "OID": "COND.VS.VSTESTCD.4d709ea4",
      "rangeChecks": [
        {
          "comparator": "EQ",
          "checkValues": [
            "RESP"
          ],
          "item": "IT.VS.VSTESTCD",
          "softHard": "Soft"
        }
      ]
    },
    {
      "OID": "COND.VS.VSTESTCD.7ca006e0",
      "rangeChecks": [
        {
          "comparator": "EQ",
          "checkValues": [
            "BMI"
          ],
          "item": "IT.VS.VSTESTCD",
          "softHard": "Soft"
        }
      ]
    },
    {
      "OID": "COND.VS.VSTESTCD.6f8a5002",
      "rangeChecks": [
        {
          "comparator": "EQ",
          "checkValues": [
            "SYSBP"
          ],
          "item": "IT.VS.VSTESTCD",
          "softHard": "Soft"
        }
      ]
    },
    {
      "OID": "COND.VS.VSLOC.7c8b8031",
      "rangeChecks": [
        {
          "comparator": "IN",
          "checkValues": [
            "BRACHIAL ARTERY",
            "CAROTID ARTERY",
            "DORSALIS PEDIS ARTERY",
            "FEMORAL ARTERY",
            "FINGER",
            "RADIAL ARTERY"
          ],
          "item": "IT.VS.VSLOC",
          "softHard": "Soft"
        }
      ]
    },
    {
      "OID": "COND.VS.VSTESTCD.04e7c99e",
      "rangeChecks": [
        {
          "comparator": "EQ",
          "checkValues": [
            "DIABP"
          ],
          "item": "IT.VS.VSTESTCD",
          "softHard": "Soft"
        }
      ]
    },
    {
      "OID": "COND.VS.VSTESTCD.34f13e1b",
      "rangeChecks": [
        {
          "comparator": "EQ",
          "checkValues": [
            "HR"
          ],
          "item": "IT.VS.VSTESTCD",
          "softHard": "Soft"
        }
      ]
    },
    {
      "OID": "COND.EG.EGTESTCD.ebac683e",
      "rangeChecks": [
        {
          "comparator": "EQ",
          "checkValues": [
            "INTP"
          ],
          "item": "IT.EG.EGTESTCD",
          "softHard": "Soft"
        }
      ]
    },
    {
      "OID": "COND.EG.EGEVAL.6c228d92",
      "rangeChecks": [
        {
          "comparator": "IN",
          "checkValues": [
            "ADJUDICATION COMMITTEE",
            "INDEPENDENT ASSESSOR",
            "INVESTIGATOR",
            "VENDOR"
          ],
          "item": "IT.EG.EGEVAL",
          "softHard": "Soft"
        }
      ]
    },
    {
      "OID": "COND.EG.EGTESTCD.814eb2d7",
      "rangeChecks": [
        {
          "comparator": "EQ",
          "checkValues": [
            "AVCOND"
          ],
          "item": "IT.EG.EGTESTCD",
          "softHard": "Soft"
        }
      ]
    },
    {
      "OID": "COND.EG.EGTESTCD.75ce255c",
      "rangeChecks": [
        {
          "comparator": "EQ",
          "checkValues": [
            "AXISVOLT"
          ],
          "item": "IT.EG.EGTESTCD",
          "softHard": "Soft"
        }
      ]
    },
    {
      "OID": "COND.EG.EGTESTCD.b1863809",
      "rangeChecks": [
        {
          "comparator": "EQ",
          "checkValues": [
            "CHYPTENL"
          ],
          "item": "IT.EG.EGTESTCD",
          "softHard": "Soft"
        }
      ]
    },
    {
      "OID": "COND.EG.EGTESTCD.1eae990e",
      "rangeChecks": [
        {
          "comparator": "EQ",
          "checkValues": [
            "TECHQUAL"
          ],
          "item": "IT.EG.EGTESTCD",
          "softHard": "Soft"
        }
      ]
    },
    {
      "OID": "COND.EG.EGTESTCD.976a645a",
      "rangeChecks": [
        {
          "comparator": "EQ",
          "checkValues": [
            "IVTIACD"
          ],
          "item": "IT.EG.EGTESTCD",
          "softHard": "Soft"
        }
      ]
    },
    {
      "OID": "COND.EG.EGTESTCD.30a97f6d",
      "rangeChecks": [
        {
          "comparator": "EQ",
          "checkValues": [
            "PACEMAKR"
          ],
          "item": "IT.EG.EGTESTCD",
          "softHard": "Soft"
        }
      ]
    },
    {
      "OID": "COND.EG.EGTESTCD.d5fe4df0",
      "rangeChecks": [
        {
          "comparator": "EQ",
          "checkValues": [
            "RHYNOS"
          ],
          "item": "IT.EG.EGTESTCD",
          "softHard": "Soft"
        }
      ]
    },
    {
      "OID": "COND.EG.EGTESTCD.4f569105",
      "rangeChecks": [
        {
          "comparator": "EQ",
          "checkValues": [
            "SNRARRY"
          ],
          "item": "IT.EG.EGTESTCD",
          "softHard": "Soft"
        }
      ]
    },
    {
      "OID": "COND.EG.EGTESTCD.2109c5fb",
      "rangeChecks": [
        {
          "comparator": "EQ",
          "checkValues": [
            "SPRARRY"
          ],
          "item": "IT.EG.EGTESTCD",
          "softHard": "Soft"
        }
      ]
    },
    {
      "OID": "COND.EG.EGTESTCD.d1c2c091",
      "rangeChecks": [
        {
          "comparator": "EQ",
          "checkValues": [
            "SPRTARRY"
          ],
          "item": "IT.EG.EGTESTCD",
          "softHard": "Soft"
        }
      ]
    },
    {
      "OID": "COND.EG.EGTESTCD.07c67769",
      "rangeChecks": [
        {
          "comparator": "EQ",
          "checkValues": [
            "VTARRY"
          ],
          "item": "IT.EG.EGTESTCD",
          "softHard": "Soft"
        }
      ]
    },
    {
      "OID": "COND.EG.EGTESTCD.35652981",
      "rangeChecks": [
        {
          "comparator": "EQ",
          "checkValues": [
            "VTTARRY"
          ],
          "item": "IT.EG.EGTESTCD",
          "softHard": "Soft"
        }
      ]
    },
    {
      "OID": "COND.EG.EGTESTCD.5442d393",
      "rangeChecks": [
        {
          "comparator": "EQ",
          "checkValues": [
            "PRAG"
          ],
          "item": "IT.EG.EGTESTCD",
          "softHard": "Soft"
        }
      ]
    },
    {
      "OID": "COND.EG.EGTESTCD.959d4d44",
      "rangeChecks": [
        {
          "comparator": "EQ",
          "checkValues": [
            "QRSAG"
          ],
          "item": "IT.EG.EGTESTCD",
          "softHard": "Soft"
        }
      ]
    },
    {
      "OID": "COND.EG.EGTESTCD.6da05656",
      "rangeChecks": [
        {
          "comparator": "EQ",
          "checkValues": [
            "QTAG"
          ],
          "item": "IT.EG.EGTESTCD",
          "softHard": "Soft"
        }
      ]
    },
    {
      "OID": "COND.EG.EGTESTCD.920155f1",
      "rangeChecks": [
        {
          "comparator": "EQ",
          "checkValues": [
            "QTCBAG"
          ],
          "item": "IT.EG.EGTESTCD",
          "softHard": "Soft"
        }
      ]
    },
    {
      "OID": "COND.EG.EGTESTCD.aaf0d406",
      "rangeChecks": [
        {
          "comparator": "EQ",
          "checkValues": [
            "QTCFAG"
          ],
          "item": "IT.EG.EGTESTCD",
          "softHard": "Soft"
        }
      ]
    },
    {
      "OID": "COND.EG.EGTESTCD.ba1daa9c",
      "rangeChecks": [
        {
          "comparator": "EQ",
          "checkValues": [
            "RRAG"
          ],
          "item": "IT.EG.EGTESTCD",
          "softHard": "Soft"
        }
      ]
    },
    {
      "OID": "COND.EG.EGTESTCD.5a654be1",
      "rangeChecks": [
        {
          "comparator": "EQ",
          "checkValues": [
            "EGHRMN"
          ],
          "item": "IT.EG.EGTESTCD",
          "softHard": "Soft"
        }
      ]
    },
    {
      "OID": "COND.EG.EGTESTCD.a8fd8ff9",
      "rangeChecks": [
        {
          "comparator": "EQ",
          "checkValues": [
            "QRS_AXIS"
          ],
          "item": "IT.EG.EGTESTCD",
          "softHard": "Soft"
        }
      ]
    },
    {
      "OID": "COND.LB.LBTESTCD.04aa6f0c",
      "rangeChecks": [
        {
          "comparator": "EQ",
          "checkValues": [
            "HGB"
          ],
          "item": "IT.LB.LBTESTCD",
          "softHard": "Soft"
        }
      ]
    },
    {
      "OID": "COND.LB.LBSPEC.f6f6df0c",
      "rangeChecks": [
        {
          "comparator": "EQ",
          "checkValues": [
            "BLOOD"
          ],
          "item": "IT.LB.LBSPEC",
          "softHard": "Soft"
        }
      ]
    },
    {
      "OID": "COND.LB.LBMETHOD.ac001fcd",
      "rangeChecks": [
        {
          "comparator": "EQ",
          "checkValues": [
            "DIPSTICK MEASUREMENT METHOD"
          ],
          "item": "IT.LB.LBMETHOD",
          "softHard": "Soft"
        }
      ]
    },
    {
      "OID": "COND.LB.LBTESTCD.2596a002",
      "rangeChecks": [
        {
          "comparator": "EQ",
          "checkValues": [
            "HCT"
          ],
          "item": "IT.LB.LBTESTCD",
          "softHard": "Soft"
        }
      ]
    },
    {
      "OID": "COND.LB.LBTESTCD.f0b51e31",
      "rangeChecks": [
        {
          "comparator": "EQ",
          "checkValues": [
            "RBC"
          ],
          "item": "IT.LB.LBTESTCD",
          "softHard": "Soft"
        }
      ]
    },
    {
      "OID": "COND.LB.LBTESTCD.ca27fffa",
      "rangeChecks": [
        {
          "comparator": "EQ",
          "checkValues": [
            "MCH"
          ],
          "item": "IT.LB.LBTESTCD",
          "softHard": "Soft"
        }
      ]
    },
    {
      "OID": "COND.LB.LBSPEC.d1bfd10c",
      "rangeChecks": [
        {
          "comparator": "EQ",
          "checkValues": [
            "ERYTHROCYTES"
          ],
          "item": "IT.LB.LBSPEC",
          "softHard": "Soft"
        }
      ]
    },
    {
      "OID": "COND.LB.LBTESTCD.e647bee9",
      "rangeChecks": [
        {
          "comparator": "EQ",
          "checkValues": [
            "MCHC"
          ],
          "item": "IT.LB.LBTESTCD",
          "softHard": "Soft"
        }
      ]
    },
    {
      "OID": "COND.LB.LBTESTCD.347788eb",
      "rangeChecks": [
        {
          "comparator": "EQ",
          "checkValues": [
            "MCV"
          ],
          "item": "IT.LB.LBTESTCD",
          "softHard": "Soft"
        }
      ]
    },
    {
      "OID": "COND.LB.LBTESTCD.d093221c",
      "rangeChecks": [
        {
          "comparator": "EQ",
          "checkValues": [
            "WBC"
          ],
          "item": "IT.LB.LBTESTCD",
          "softHard": "Soft"
        }
      ]
    },
    {
      "OID": "COND.LB.LBTESTCD.d7f9d982",
      "rangeChecks": [
        {
          "comparator": "EQ",
          "checkValues": [
            "NEUTSG"
          ],
          "item": "IT.LB.LBTESTCD",
          "softHard": "Soft"
        }
      ]
    },
    {
      "OID": "COND.LB.LBTESTCD.ee1bd4eb",
      "rangeChecks": [
        {
          "comparator": "EQ",
          "checkValues": [
            "NEUTB"
          ],
          "item": "IT.LB.LBTESTCD",
          "softHard": "Soft"
        }
      ]
    },
    {
      "OID": "COND.LB.LBTESTCD.7949af26",
      "rangeChecks": [
        {
          "comparator": "EQ",
          "checkValues": [
            "NEUT"
          ],
          "item": "IT.LB.LBTESTCD",
          "softHard": "Soft"
        }
      ]
    },
    {
      "OID": "COND.LB.LBTESTCD.875d3e51",
      "rangeChecks": [
        {
          "comparator": "EQ",
          "checkValues": [
            "MONO"
          ],
          "item": "IT.LB.LBTESTCD",
          "softHard": "Soft"
        }
      ]
    },
    {
      "OID": "COND.LB.LBTESTCD.67b49e63",
      "rangeChecks": [
        {
          "comparator": "EQ",
          "checkValues": [
            "EOS"
          ],
          "item": "IT.LB.LBTESTCD",
          "softHard": "Soft"
        }
      ]
    },
    {
      "OID": "COND.LB.LBTESTCD.287c5431",
      "rangeChecks": [
        {
          "comparator": "EQ",
          "checkValues": [
            "BASO"
          ],
          "item": "IT.LB.LBTESTCD",
          "softHard": "Soft"
        }
      ]
    },
    {
      "OID": "COND.LB.LBTESTCD.e319c1c9",
      "rangeChecks": [
        {
          "comparator": "EQ",
          "checkValues": [
            "PLAT"
          ],
          "item": "IT.LB.LBTESTCD",
          "softHard": "Soft"
        }
      ]
    },
    {
      "OID": "COND.LB.LBTESTCD.595603b0",
      "rangeChecks": [
        {
          "comparator": "EQ",
          "checkValues": [
            "MICROCY"
          ],
          "item": "IT.LB.LBTESTCD",
          "softHard": "Soft"
        }
      ]
    },
    {
      "OID": "COND.LB.LBSPEC.e9dcc27d",
      "rangeChecks": [
        {
          "comparator": "EQ",
          "checkValues": [
            "URINE SEDIMENT"
          ],
          "item": "IT.LB.LBSPEC",
          "softHard": "Soft"
        }
      ]
    },
    {
      "OID": "COND.LB.LBTESTCD.4a019cc1",
      "rangeChecks": [
        {
          "comparator": "EQ",
          "checkValues": [
            "MACROCY"
          ],
          "item": "IT.LB.LBTESTCD",
          "softHard": "Soft"
        }
      ]
    },
    {
      "OID": "COND.LB.LBTESTCD.4c8c90fb",
      "rangeChecks": [
        {
          "comparator": "EQ",
          "checkValues": [
            "ANISO"
          ],
          "item": "IT.LB.LBTESTCD",
          "softHard": "Soft"
        }
      ]
    },
    {
      "OID": "COND.LB.LBTESTCD.44179c1d",
      "rangeChecks": [
        {
          "comparator": "EQ",
          "checkValues": [
            "POIKILO"
          ],
          "item": "IT.LB.LBTESTCD",
          "softHard": "Soft"
        }
      ]
    },
    {
      "OID": "COND.LB.LBTESTCD.279ee1d7",
      "rangeChecks": [
        {
          "comparator": "EQ",
          "checkValues": [
            "POLYCHR"
          ],
          "item": "IT.LB.LBTESTCD",
          "softHard": "Soft"
        }
      ]
    },
    {
      "OID": "COND.LB.LBTESTCD.2cf3f505",
      "rangeChecks": [
        {
          "comparator": "EQ",
          "checkValues": [
            "ALT"
          ],
          "item": "IT.LB.LBTESTCD",
          "softHard": "Soft"
        }
      ]
    },
    {
      "OID": "COND.LB.LBSPEC.2a0ba9ed",
      "rangeChecks": [
        {
          "comparator": "EQ",
          "checkValues": [
            "SERUM OR PLASMA"
          ],
          "item": "IT.LB.LBSPEC",
          "softHard": "Soft"
        }
      ]
    },
    {
      "OID": "COND.LB.LBTESTCD.65d4f752",
      "rangeChecks": [
        {
          "comparator": "EQ",
          "checkValues": [
            "ALB"
          ],
          "item": "IT.LB.LBTESTCD",
          "softHard": "Soft"
        }
      ]
    },
    {
      "OID": "COND.LB.LBSPEC.fe2e0fb3",
      "rangeChecks": [
        {
          "comparator": "EQ",
          "checkValues": [
            "URINE"
          ],
          "item": "IT.LB.LBSPEC",
          "softHard": "Soft"
        }
      ]
    },
    {
      "OID": "COND.LB.LBTESTCD.b2d661b6",
      "rangeChecks": [
        {
          "comparator": "EQ",
          "checkValues": [
            "ALP"
          ],
          "item": "IT.LB.LBTESTCD",
          "softHard": "Soft"
        }
      ]
    },
    {
      "OID": "COND.LB.LBTESTCD.ee16e022",
      "rangeChecks": [
        {
          "comparator": "EQ",
          "checkValues": [
            "AST"
          ],
          "item": "IT.LB.LBTESTCD",
          "softHard": "Soft"
        }
      ]
    },
    {
      "OID": "COND.LB.LBTESTCD.09d56ffc",
      "rangeChecks": [
        {
          "comparator": "EQ",
          "checkValues": [
            "CREAT"
          ],
          "item": "IT.LB.LBTESTCD",
          "softHard": "Soft"
        }
      ]
    },
    {
      "OID": "COND.LB.LBTESTCD.5e7b0134",
      "rangeChecks": [
        {
          "comparator": "EQ",
          "checkValues": [
            "K"
          ],
          "item": "IT.LB.LBTESTCD",
          "softHard": "Soft"
        }
      ]
    },
    {
      "OID": "COND.LB.LBTESTCD.1f6a1d0f",
      "rangeChecks": [
        {
          "comparator": "EQ",
          "checkValues": [
            "SODIUM"
          ],
          "item": "IT.LB.LBTESTCD",
          "softHard": "Soft"
        }
      ]
    },
    {
      "OID": "COND.LB.LBTESTCD.c95065ae",
      "rangeChecks": [
        {
          "comparator": "EQ",
          "checkValues": [
            "UREAN"
          ],
          "item": "IT.LB.LBTESTCD",
          "softHard": "Soft"
        }
      ]
    },
    {
      "OID": "COND.LB.LBTESTCD.608ed901",
      "rangeChecks": [
        {
          "comparator": "EQ",
          "checkValues": [
            "BICARB"
          ],
          "item": "IT.LB.LBTESTCD",
          "softHard": "Soft"
        }
      ]
    },
    {
      "OID": "COND.LB.LBTESTCD.4bda7613",
      "rangeChecks": [
        {
          "comparator": "EQ",
          "checkValues": [
            "CL"
          ],
          "item": "IT.LB.LBTESTCD",
          "softHard": "Soft"
        }
      ]
    },
    {
      "OID": "COND.LB.LBTESTCD.fb28452f",
      "rangeChecks": [
        {
          "comparator": "EQ",
          "checkValues": [
            "BILI"
          ],
          "item": "IT.LB.LBTESTCD",
          "softHard": "Soft"
        }
      ]
    },
    {
      "OID": "COND.LB.LBTESTCD.4ea796f7",
      "rangeChecks": [
        {
          "comparator": "EQ",
          "checkValues": [
            "GGT"
          ],
          "item": "IT.LB.LBTESTCD",
          "softHard": "Soft"
        }
      ]
    },
    {
      "OID": "COND.LB.LBTESTCD.4787c4c4",
      "rangeChecks": [
        {
          "comparator": "EQ",
          "checkValues": [
            "URATE"
          ],
          "item": "IT.LB.LBTESTCD",
          "softHard": "Soft"
        }
      ]
    },
    {
      "OID": "COND.LB.LBTESTCD.9181afaf",
      "rangeChecks": [
        {
          "comparator": "EQ",
          "checkValues": [
            "PHOS"
          ],
          "item": "IT.LB.LBTESTCD",
          "softHard": "Soft"
        }
      ]
    },
    {
      "OID": "COND.LB.LBTESTCD.9bb90c0f",
      "rangeChecks": [
        {
          "comparator": "EQ",
          "checkValues": [
            "CA"
          ],
          "item": "IT.LB.LBTESTCD",
          "softHard": "Soft"
        }
      ]
    },
    {
      "OID": "COND.LB.LBTESTCD.5f3309c8",
      "rangeChecks": [
        {
          "comparator": "EQ",
          "checkValues": [
            "GLUC"
          ],
          "item": "IT.LB.LBTESTCD",
          "softHard": "Soft"
        }
      ]
    },
    {
      "OID": "COND.LB.LBTESTCD.3705806a",
      "rangeChecks": [
        {
          "comparator": "EQ",
          "checkValues": [
            "PROT"
          ],
          "item": "IT.LB.LBTESTCD",
          "softHard": "Soft"
        }
      ]
    },
    {
      "OID": "COND.LB.LBTESTCD.546f62a6",
      "rangeChecks": [
        {
          "comparator": "EQ",
          "checkValues": [
            "CHOL"
          ],
          "item": "IT.LB.LBTESTCD",
          "softHard": "Soft"
        }
      ]
    },
    {
      "OID": "COND.LB.LBTESTCD.662421ca",
      "rangeChecks": [
        {
          "comparator": "EQ",
          "checkValues": [
            "T3UP"
          ],
          "item": "IT.LB.LBTESTCD",
          "softHard": "Soft"
        }
      ]
    },
    {
      "OID": "COND.LB.LBTESTCD.253a2d2c",
      "rangeChecks": [
        {
          "comparator": "EQ",
          "checkValues": [
            "T3"
          ],
          "item": "IT.LB.LBTESTCD",
          "softHard": "Soft"
        }
      ]
    },
    {
      "OID": "COND.LB.LBTESTCD.32179136",
      "rangeChecks": [
        {
          "comparator": "EQ",
          "checkValues": [
            "T4FR"
          ],
          "item": "IT.LB.LBTESTCD",
          "softHard": "Soft"
        }
      ]
    },
    {
      "OID": "COND.LB.LBTESTCD.68013b69",
      "rangeChecks": [
        {
          "comparator": "EQ",
          "checkValues": [
            "T4FRIDX"
          ],
          "item": "IT.LB.LBTESTCD",
          "softHard": "Soft"
        }
      ]
    },
    {
      "OID": "COND.LB.LBTESTCD.af474d82",
      "rangeChecks": [
        {
          "comparator": "EQ",
          "checkValues": [
            "TSH"
          ],
          "item": "IT.LB.LBTESTCD",
          "softHard": "Soft"
        }
      ]
    },
    {
      "OID": "COND.LB.LBTESTCD.ee2fb0c8",
      "rangeChecks": [
        {
          "comparator": "EQ",
          "checkValues": [
            "VITB9"
          ],
          "item": "IT.LB.LBTESTCD",
          "softHard": "Soft"
        }
      ]
    },
    {
      "OID": "COND.LB.LBTESTCD.a07b5dee",
      "rangeChecks": [
        {
          "comparator": "EQ",
          "checkValues": [
            "VITB12"
          ],
          "item": "IT.LB.LBTESTCD",
          "softHard": "Soft"
        }
      ]
    },
    {
      "OID": "COND.LB.LBTESTCD.797729c2",
      "rangeChecks": [
        {
          "comparator": "EQ",
          "checkValues": [
            "COLOR"
          ],
          "item": "IT.LB.LBTESTCD",
          "softHard": "Soft"
        }
      ]
    },
    {
      "OID": "COND.LB.LBTESTCD.5613f4c1",
      "rangeChecks": [
        {
          "comparator": "EQ",
          "checkValues": [
            "SPGRAV"
          ],
          "item": "IT.LB.LBTESTCD",
          "softHard": "Soft"
        }
      ]
    },
    {
      "OID": "COND.LB.LBTESTCD.e6f6bca1",
      "rangeChecks": [
        {
          "comparator": "EQ",
          "checkValues": [
            "KETONES"
          ],
          "item": "IT.LB.LBTESTCD",
          "softHard": "Soft"
        }
      ]
    },
    {
      "OID": "COND.LB.LBTESTCD.ce5391eb",
      "rangeChecks": [
        {
          "comparator": "EQ",
          "checkValues": [
            "UROBIL"
          ],
          "item": "IT.LB.LBTESTCD",
          "softHard": "Soft"
        }
      ]
    },
    {
      "OID": "COND.LB.LBTESTCD.d277d8f1",
      "rangeChecks": [
        {
          "comparator": "EQ",
          "checkValues": [
            "OCCBLD"
          ],
          "item": "IT.LB.LBTESTCD",
          "softHard": "Soft"
        }
      ]
    },
    {
      "OID": "COND.LB.LBSPEC.22e91b54",
      "rangeChecks": [
        {
          "comparator": "EQ",
          "checkValues": [
            "STOOL"
          ],
          "item": "IT.LB.LBSPEC",
          "softHard": "Soft"
        }
      ]
    },
    {
      "OID": "COND.LB.LBTESTCD.b3c8bdba",
      "rangeChecks": [
        {
          "comparator": "EQ",
          "checkValues": [
            "NITRITE"
          ],
          "item": "IT.LB.LBTESTCD",
          "softHard": "Soft"
        }
      ]
    },
    {
      "OID": "COND.LB.LBTESTCD.1350d454",
      "rangeChecks": [
        {
          "comparator": "EQ",
          "checkValues": [
            "HBA1C"
          ],
          "item": "IT.LB.LBTESTCD",
          "softHard": "Soft"
        }
      ]
    },
    {
      "OID": "COND.LB.LBTESTCD.5717b134",
      "rangeChecks": [
        {
          "comparator": "EQ",
          "checkValues": [
            "HBA1CHGB"
          ],
          "item": "IT.LB.LBTESTCD",
          "softHard": "Soft"
        }
      ]
    },
    {
      "OID": "COND.MB.MBTESTCD.b145c972",
      "rangeChecks": [
        {
          "comparator": "EQ",
          "checkValues": [
            "TPLAB"
          ],
          "item": "IT.MB.MBTESTCD",
          "softHard": "Soft"
        }
      ]
    },
    {
      "OID": "COND.MB.MBTSTDTL.4a168fd0",
      "rangeChecks": [
        {
          "comparator": "EQ",
          "checkValues": [
            "DETECTION"
          ],
          "item": "IT.MB.MBTSTDTL",
          "softHard": "Soft"
        }
      ]
    },
    {
      "OID": "COND.MB.MBSPEC.41a5e97b",
      "rangeChecks": [
        {
          "comparator": "EQ",
          "checkValues": [
            "SERUM"
          ],
          "item": "IT.MB.MBSPEC",
          "softHard": "Soft"
        }
      ]
    },
    {
      "OID": "COND.MB.MBMETHOD.6348a3e5",
      "rangeChecks": [
        {
          "comparator": "IN",
          "checkValues": [
            "FLUORESCENT IMMUNOASSAY",
            "HEMAGGLUTINATION ASSAY",
            "CHEMILUMINESCENT MICROPARTICLE IMMUNOASSAY",
            "POLYMERASE CHAIN REACTION",
            "IMMUNOBLOT",
            "RAPID IMMUNOASSAY"
          ],
          "item": "IT.MB.MBMETHOD",
          "softHard": "Soft"
        }
      ]
    },
    {
      "OID": "COND.MB.MBTESTCD.18cb7208",
      "rangeChecks": [
        {
          "comparator": "EQ",
          "checkValues": [
            "TPADNA"
          ],
          "item": "IT.MB.MBTESTCD",
          "softHard": "Soft"
        }
      ]
    },
    {
      "OID": "COND.MB.MBSPEC.b395cb00",
      "rangeChecks": [
        {
          "comparator": "IN",
          "checkValues": [
            "BLOOD",
            "CEREBROSPINAL FLUID",
            "FLUID",
            "SWABBED MATERIAL",
            "URINE"
          ],
          "item": "IT.MB.MBSPEC",
          "softHard": "Soft"
        }
      ]
    },
    {
      "OID": "COND.MB.MBMETHOD.92bec008",
      "rangeChecks": [
        {
          "comparator": "EQ",
          "checkValues": [
            "LINE PROBE ASSAY"
          ],
          "item": "IT.MB.MBMETHOD",
          "softHard": "Soft"
        }
      ]
    },
    {
      "OID": "COND.IE.IETESTCD.02e45534",
      "rangeChecks": [
        {
          "comparator": "EQ",
          "checkValues": [
            "IN01"
          ],
          "item": "IT.IE.IETESTCD",
          "softHard": "Soft"
        }
      ]
    },
    {
      "OID": "COND.IE.IETESTCD.b98e6bfa",
      "rangeChecks": [
        {
          "comparator": "EQ",
          "checkValues": [
            "IN02"
          ],
          "item": "IT.IE.IETESTCD",
          "softHard": "Soft"
        }
      ]
    },
    {
      "OID": "COND.IE.IETESTCD.414aa6b7",
      "rangeChecks": [
        {
          "comparator": "EQ",
          "checkValues": [
            "IN03"
          ],
          "item": "IT.IE.IETESTCD",
          "softHard": "Soft"
        }
      ]
    },
    {
      "OID": "COND.IE.IETESTCD.5600ece7",
      "rangeChecks": [
        {
          "comparator": "EQ",
          "checkValues": [
            "IN04"
          ],
          "item": "IT.IE.IETESTCD",
          "softHard": "Soft"
        }
      ]
    },
    {
      "OID": "COND.IE.IETESTCD.e62058fb",
      "rangeChecks": [
        {
          "comparator": "EQ",
          "checkValues": [
            "IN05"
          ],
          "item": "IT.IE.IETESTCD",
          "softHard": "Soft"
        }
      ]
    },
    {
      "OID": "COND.IE.IETESTCD.cae1a567",
      "rangeChecks": [
        {
          "comparator": "EQ",
          "checkValues": [
            "IN06"
          ],
          "item": "IT.IE.IETESTCD",
          "softHard": "Soft"
        }
      ]
    },
    {
      "OID": "COND.IE.IETESTCD.0b4d25da",
      "rangeChecks": [
        {
          "comparator": "EQ",
          "checkValues": [
            "IN07"
          ],
          "item": "IT.IE.IETESTCD",
          "softHard": "Soft"
        }
      ]
    },
    {
      "OID": "COND.IE.IETESTCD.dd1bb437",
      "rangeChecks": [
        {
          "comparator": "EQ",
          "checkValues": [
            "IN08"
          ],
          "item": "IT.IE.IETESTCD",
          "softHard": "Soft"
        }
      ]
    },
    {
      "OID": "COND.IE.IETESTCD.b86f72a6",
      "rangeChecks": [
        {
          "comparator": "EQ",
          "checkValues": [
            "EX01"
          ],
          "item": "IT.IE.IETESTCD",
          "softHard": "Soft"
        }
      ]
    },
    {
      "OID": "COND.IE.IETESTCD.ee806e62",
      "rangeChecks": [
        {
          "comparator": "EQ",
          "checkValues": [
            "EX02"
          ],
          "item": "IT.IE.IETESTCD",
          "softHard": "Soft"
        }
      ]
    },
    {
      "OID": "COND.IE.IETESTCD.13b40508",
      "rangeChecks": [
        {
          "comparator": "EQ",
          "checkValues": [
            "EX03"
          ],
          "item": "IT.IE.IETESTCD",
          "softHard": "Soft"
        }
      ]
    },
    {
      "OID": "COND.IE.IETESTCD.27412cd0",
      "rangeChecks": [
        {
          "comparator": "EQ",
          "checkValues": [
            "EX04"
          ],
          "item": "IT.IE.IETESTCD",
          "softHard": "Soft"
        }
      ]
    },
    {
      "OID": "COND.IE.IETESTCD.c264aeb4",
      "rangeChecks": [
        {
          "comparator": "EQ",
          "checkValues": [
            "EX05"
          ],
          "item": "IT.IE.IETESTCD",
          "softHard": "Soft"
        }
      ]
    },
    {
      "OID": "COND.IE.IETESTCD.904b6c2f",
      "rangeChecks": [
        {
          "comparator": "EQ",
          "checkValues": [
            "EX06"
          ],
          "item": "IT.IE.IETESTCD",
          "softHard": "Soft"
        }
      ]
    },
    {
      "OID": "COND.IE.IETESTCD.29880e8c",
      "rangeChecks": [
        {
          "comparator": "EQ",
          "checkValues": [
            "EX07"
          ],
          "item": "IT.IE.IETESTCD",
          "softHard": "Soft"
        }
      ]
    },
    {
      "OID": "COND.IE.IETESTCD.7f6091a2",
      "rangeChecks": [
        {
          "comparator": "EQ",
          "checkValues": [
            "EX08"
          ],
          "item": "IT.IE.IETESTCD",
          "softHard": "Soft"
        }
      ]
    },
    {
      "OID": "COND.IE.IETESTCD.8f18d21b",
      "rangeChecks": [
        {
          "comparator": "EQ",
          "checkValues": [
            "EX09"
          ],
          "item": "IT.IE.IETESTCD",
          "softHard": "Soft"
        }
      ]
    },
    {
      "OID": "COND.IE.IETESTCD.86209c99",
      "rangeChecks": [
        {
          "comparator": "EQ",
          "checkValues": [
            "EX10"
          ],
          "item": "IT.IE.IETESTCD",
          "softHard": "Soft"
        }
      ]
    },
    {
      "OID": "COND.IE.IETESTCD.aab5d609",
      "rangeChecks": [
        {
          "comparator": "EQ",
          "checkValues": [
            "EX11"
          ],
          "item": "IT.IE.IETESTCD",
          "softHard": "Soft"
        }
      ]
    },
    {
      "OID": "COND.IE.IETESTCD.25355161",
      "rangeChecks": [
        {
          "comparator": "EQ",
          "checkValues": [
            "EX12"
          ],
          "item": "IT.IE.IETESTCD",
          "softHard": "Soft"
        }
      ]
    },
    {
      "OID": "COND.IE.IETESTCD.a38963bd",
      "rangeChecks": [
        {
          "comparator": "EQ",
          "checkValues": [
            "EX13"
          ],
          "item": "IT.IE.IETESTCD",
          "softHard": "Soft"
        }
      ]
    },
    {
      "OID": "COND.IE.IETESTCD.4f25707e",
      "rangeChecks": [
        {
          "comparator": "EQ",
          "checkValues": [
            "EX14"
          ],
          "item": "IT.IE.IETESTCD",
          "softHard": "Soft"
        }
      ]
    },
    {
      "OID": "COND.IE.IETESTCD.2a079ede",
      "rangeChecks": [
        {
          "comparator": "EQ",
          "checkValues": [
            "EX15"
          ],
          "item": "IT.IE.IETESTCD",
          "softHard": "Soft"
        }
      ]
    },
    {
      "OID": "COND.IE.IETESTCD.871b7729",
      "rangeChecks": [
        {
          "comparator": "EQ",
          "checkValues": [
            "EX16"
          ],
          "item": "IT.IE.IETESTCD",
          "softHard": "Soft"
        }
      ]
    },
    {
      "OID": "COND.IE.IETESTCD.51c4af93",
      "rangeChecks": [
        {
          "comparator": "EQ",
          "checkValues": [
            "EX17"
          ],
          "item": "IT.IE.IETESTCD",
          "softHard": "Soft"
        }
      ]
    },
    {
      "OID": "COND.IE.IETESTCD.a954a7c8",
      "rangeChecks": [
        {
          "comparator": "EQ",
          "checkValues": [
            "EX18"
          ],
          "item": "IT.IE.IETESTCD",
          "softHard": "Soft"
        }
      ]
    },
    {
      "OID": "COND.IE.IETESTCD.8f66ca7f",
      "rangeChecks": [
        {
          "comparator": "EQ",
          "checkValues": [
            "EX19"
          ],
          "item": "IT.IE.IETESTCD",
          "softHard": "Soft"
        }
      ]
    },
    {
      "OID": "COND.IE.IETESTCD.528d2eb0",
      "rangeChecks": [
        {
          "comparator": "EQ",
          "checkValues": [
            "EX20"
          ],
          "item": "IT.IE.IETESTCD",
          "softHard": "Soft"
        }
      ]
    },
    {
      "OID": "COND.IE.IETESTCD.bd5f1313",
      "rangeChecks": [
        {
          "comparator": "EQ",
          "checkValues": [
            "EX21"
          ],
          "item": "IT.IE.IETESTCD",
          "softHard": "Soft"
        }
      ]
    },
    {
      "OID": "COND.IE.IETESTCD.01e1c173",
      "rangeChecks": [
        {
          "comparator": "EQ",
          "checkValues": [
            "EX22"
          ],
          "item": "IT.IE.IETESTCD",
          "softHard": "Soft"
        }
      ]
    },
    {
      "OID": "COND.IE.IETESTCD.b8e48983",
      "rangeChecks": [
        {
          "comparator": "EQ",
          "checkValues": [
            "EX23"
          ],
          "item": "IT.IE.IETESTCD",
          "softHard": "Soft"
        }
      ]
    },
    {
      "OID": "COND.SE.ETCD.a5ec67be",
      "rangeChecks": [
        {
          "comparator": "EQ",
          "checkValues": [
            "EL1"
          ],
          "item": "IT.SE.ETCD",
          "softHard": "Soft"
        }
      ]
    },
    {
      "OID": "COND.SE.ETCD.b57045b1",
      "rangeChecks": [
        {
          "comparator": "EQ",
          "checkValues": [
            "EL2"
          ],
          "item": "IT.SE.ETCD",
          "softHard": "Soft"
        }
      ]
    },
    {
      "OID": "COND.SE.ETCD.d92b848b",
      "rangeChecks": [
        {
          "comparator": "EQ",
          "checkValues": [
            "EL7"
          ],
          "item": "IT.SE.ETCD",
          "softHard": "Soft"
        }
      ]
    },
    {
      "OID": "COND.SE.ETCD.81a5ce8a",
      "rangeChecks": [
        {
          "comparator": "EQ",
          "checkValues": [
            "EL3"
          ],
          "item": "IT.SE.ETCD",
          "softHard": "Soft"
        }
      ]
    },
    {
      "OID": "COND.SE.ETCD.4826314e",
      "rangeChecks": [
        {
          "comparator": "EQ",
          "checkValues": [
            "EL4"
          ],
          "item": "IT.SE.ETCD",
          "softHard": "Soft"
        }
      ]
    },
    {
      "OID": "COND.SE.ETCD.e6929e12",
      "rangeChecks": [
        {
          "comparator": "EQ",
          "checkValues": [
            "EL5"
          ],
          "item": "IT.SE.ETCD",
          "softHard": "Soft"
        }
      ]
    },
    {
      "OID": "COND.SE.ETCD.cb472c47",
      "rangeChecks": [
        {
          "comparator": "EQ",
          "checkValues": [
            "EL6"
          ],
          "item": "IT.SE.ETCD",
          "softHard": "Soft"
        }
      ]
    }
  ],
  "whereClauses": [
    {
      "OID": "WC.SC.48924878",
      "conditions": [
        "COND.SC.SCTESTCD.78088212"
      ]
    },
    {
      "OID": "WC.SC.e7173a71",
      "conditions": [
        "COND.SC.SCTESTCD.7cb4808a"
      ]
    },
    {
      "OID": "WC.SC.5fc4562e",
      "conditions": [
        "COND.SC.SCTESTCD.7cb4808a"
      ]
    },
    {
      "OID": "WC.VS.df8e6ed8",
      "conditions": [
        "COND.VS.VSTESTCD.3cd24c45",
        "COND.VS.VSLOC.e14ab3ef"
      ]
    },
    {
      "OID": "WC.VS.362bc1cf",
      "conditions": [
        "COND.VS.VSTESTCD.3065ea60"
      ]
    },
    {
      "OID": "WC.VS.22da90ca",
      "conditions": [
        "COND.VS.VSTESTCD.9c8495d2"
      ]
    },
    {
      "OID": "WC.VS.90269389",
      "conditions": [
        "COND.VS.VSTESTCD.903f5a52",
        "COND.VS.VSPOS.24ef7406",
        "COND.VS.VSLOC.9b0f4929",
        "COND.VS.VSLAT.934ef850"
      ]
    },
    {
      "OID": "WC.VS.02e0f161",
      "conditions": [
        "COND.VS.VSTESTCD.4d709ea4"
      ]
    },
    {
      "OID": "WC.VS.ba9d17a7",
      "conditions": [
        "COND.VS.VSTESTCD.7ca006e0"
      ]
    },
    {
      "OID": "WC.VS.037b6848",
      "conditions": [
        "COND.VS.VSTESTCD.6f8a5002",
        "COND.VS.VSPOS.24ef7406",
        "COND.VS.VSLOC.7c8b8031",
        "COND.VS.VSLAT.934ef850"
      ]
    },
    {
      "OID": "WC.VS.fe755a11",
      "conditions": [
        "COND.VS.VSTESTCD.04e7c99e",
        "COND.VS.VSPOS.24ef7406",
        "COND.VS.VSLOC.7c8b8031",
        "COND.VS.VSLAT.934ef850"
      ]
    },
    {
      "OID": "WC.VS.324e0cc0",
      "conditions": [
        "COND.VS.VSTESTCD.34f13e1b",
        "COND.VS.VSPOS.24ef7406",
        "COND.VS.VSLOC.9b0f4929",
        "COND.VS.VSLAT.934ef850"
      ]
    },
    {
      "OID": "WC.VS.dea56915",
      "conditions": [
        "COND.VS.VSTESTCD.3cd24c45",
        "COND.VS.VSLOC.e14ab3ef"
      ]
    },
    {
      "OID": "WC.VS.ef959fbb",
      "conditions": [
        "COND.VS.VSTESTCD.3065ea60"
      ]
    },
    {
      "OID": "WC.VS.97262f9f",
      "conditions": [
        "COND.VS.VSTESTCD.9c8495d2"
      ]
    },
    {
      "OID": "WC.VS.2fad3005",
      "conditions": [
        "COND.VS.VSTESTCD.903f5a52",
        "COND.VS.VSPOS.24ef7406",
        "COND.VS.VSLOC.9b0f4929",
        "COND.VS.VSLAT.934ef850"
      ]
    },
    {
      "OID": "WC.VS.f296848d",
      "conditions": [
        "COND.VS.VSTESTCD.4d709ea4"
      ]
    },
    {
      "OID": "WC.VS.ca4251ba",
      "conditions": [
        "COND.VS.VSTESTCD.7ca006e0"
      ]
    },
    {
      "OID": "WC.VS.301c7ee3",
      "conditions": [
        "COND.VS.VSTESTCD.6f8a5002",
        "COND.VS.VSPOS.24ef7406",
        "COND.VS.VSLOC.7c8b8031",
        "COND.VS.VSLAT.934ef850"
      ]
    },
    {
      "OID": "WC.VS.714dfc07",
      "conditions": [
        "COND.VS.VSTESTCD.04e7c99e",
        "COND.VS.VSPOS.24ef7406",
        "COND.VS.VSLOC.7c8b8031",
        "COND.VS.VSLAT.934ef850"
      ]
    },
    {
      "OID": "WC.VS.5a9c1ab0",
      "conditions": [
        "COND.VS.VSTESTCD.34f13e1b",
        "COND.VS.VSPOS.24ef7406",
        "COND.VS.VSLOC.9b0f4929",
        "COND.VS.VSLAT.934ef850"
      ]
    },
    {
      "OID": "WC.EG.f60b99cb",
      "conditions": [
        "COND.EG.EGTESTCD.ebac683e",
        "COND.EG.EGEVAL.6c228d92"
      ]
    },
    {
      "OID": "WC.EG.d30401ba",
      "conditions": [
        "COND.EG.EGTESTCD.814eb2d7",
        "COND.EG.EGEVAL.6c228d92"
      ]
    },
    {
      "OID": "WC.EG.0764363d",
      "conditions": [
        "COND.EG.EGTESTCD.75ce255c",
        "COND.EG.EGEVAL.6c228d92"
      ]
    },
    {
      "OID": "WC.EG.c7ca2c0d",
      "conditions": [
        "COND.EG.EGTESTCD.b1863809",
        "COND.EG.EGEVAL.6c228d92"
      ]
    },
    {
      "OID": "WC.EG.0110957e",
      "conditions": [
        "COND.EG.EGTESTCD.1eae990e",
        "COND.EG.EGEVAL.6c228d92"
      ]
    },
    {
      "OID": "WC.EG.7a2cbb17",
      "conditions": [
        "COND.EG.EGTESTCD.976a645a",
        "COND.EG.EGEVAL.6c228d92"
      ]
    },
    {
      "OID": "WC.EG.c82f004b",
      "conditions": [
        "COND.EG.EGTESTCD.30a97f6d",
        "COND.EG.EGEVAL.6c228d92"
      ]
    },
    {
      "OID": "WC.EG.aaf51dd5",
      "conditions": [
        "COND.EG.EGTESTCD.d5fe4df0",
        "COND.EG.EGEVAL.6c228d92"
      ]
    },
    {
      "OID": "WC.EG.0a478649",
      "conditions": [
        "COND.EG.EGTESTCD.4f569105",
        "COND.EG.EGEVAL.6c228d92"
      ]
    },
    {
      "OID": "WC.EG.44c12ce4",
      "conditions": [
        "COND.EG.EGTESTCD.2109c5fb",
        "COND.EG.EGEVAL.6c228d92"
      ]
    },
    {
      "OID": "WC.EG.7c9fb72d",
      "conditions": [
        "COND.EG.EGTESTCD.d1c2c091",
        "COND.EG.EGEVAL.6c228d92"
      ]
    },
    {
      "OID": "WC.EG.3a146a53",
      "conditions": [
        "COND.EG.EGTESTCD.07c67769",
        "COND.EG.EGEVAL.6c228d92"
      ]
    },
    {
      "OID": "WC.EG.5571a969",
      "conditions": [
        "COND.EG.EGTESTCD.35652981",
        "COND.EG.EGEVAL.6c228d92"
      ]
    },
    {
      "OID": "WC.EG.13a9fd00",
      "conditions": [
        "COND.EG.EGTESTCD.5442d393",
        "COND.EG.EGEVAL.6c228d92"
      ]
    },
    {
      "OID": "WC.EG.72304c3a",
      "conditions": [
        "COND.EG.EGTESTCD.959d4d44",
        "COND.EG.EGEVAL.6c228d92"
      ]
    },
    {
      "OID": "WC.EG.6f155b1d",
      "conditions": [
        "COND.EG.EGTESTCD.6da05656",
        "COND.EG.EGEVAL.6c228d92"
      ]
    },
    {
      "OID": "WC.EG.dff815c6",
      "conditions": [
        "COND.EG.EGTESTCD.920155f1",
        "COND.EG.EGEVAL.6c228d92"
      ]
    },
    {
      "OID": "WC.EG.e967e1e7",
      "conditions": [
        "COND.EG.EGTESTCD.aaf0d406",
        "COND.EG.EGEVAL.6c228d92"
      ]
    },
    {
      "OID": "WC.EG.64f26102",
      "conditions": [
        "COND.EG.EGTESTCD.ba1daa9c",
        "COND.EG.EGEVAL.6c228d92"
      ]
    },
    {
      "OID": "WC.EG.2ecbdce2",
      "conditions": [
        "COND.EG.EGTESTCD.5a654be1",
        "COND.EG.EGEVAL.6c228d92"
      ]
    },
    {
      "OID": "WC.EG.9ce29aa6",
      "conditions": [
        "COND.EG.EGTESTCD.a8fd8ff9",
        "COND.EG.EGEVAL.6c228d92"
      ]
    },
    {
      "OID": "WC.EG.cec16291",
      "conditions": [
        "COND.EG.EGTESTCD.5442d393",
        "COND.EG.EGEVAL.6c228d92"
      ]
    },
    {
      "OID": "WC.EG.5a1ab0f5",
      "conditions": [
        "COND.EG.EGTESTCD.959d4d44",
        "COND.EG.EGEVAL.6c228d92"
      ]
    },
    {
      "OID": "WC.EG.ddb86367",
      "conditions": [
        "COND.EG.EGTESTCD.6da05656",
        "COND.EG.EGEVAL.6c228d92"
      ]
    },
    {
      "OID": "WC.EG.e847517c",
      "conditions": [
        "COND.EG.EGTESTCD.920155f1",
        "COND.EG.EGEVAL.6c228d92"
      ]
    },
    {
      "OID": "WC.EG.7f463007",
      "conditions": [
        "COND.EG.EGTESTCD.aaf0d406",
        "COND.EG.EGEVAL.6c228d92"
      ]
    },
    {
      "OID": "WC.EG.3d1ba9c3",
      "conditions": [
        "COND.EG.EGTESTCD.ba1daa9c",
        "COND.EG.EGEVAL.6c228d92"
      ]
    },
    {
      "OID": "WC.EG.a40eb46d",
      "conditions": [
        "COND.EG.EGTESTCD.5a654be1",
        "COND.EG.EGEVAL.6c228d92"
      ]
    },
    {
      "OID": "WC.EG.02ebb46f",
      "conditions": [
        "COND.EG.EGTESTCD.a8fd8ff9",
        "COND.EG.EGEVAL.6c228d92"
      ]
    },
    {
      "OID": "WC.LB.c192b07f",
      "conditions": [
        "COND.LB.LBTESTCD.04aa6f0c",
        "COND.LB.LBSPEC.f6f6df0c",
        "COND.LB.LBMETHOD.ac001fcd"
      ]
    },
    {
      "OID": "WC.LB.82b97100",
      "conditions": [
        "COND.LB.LBTESTCD.2596a002",
        "COND.LB.LBSPEC.f6f6df0c"
      ]
    },
    {
      "OID": "WC.LB.87582e25",
      "conditions": [
        "COND.LB.LBTESTCD.f0b51e31",
        "COND.LB.LBSPEC.f6f6df0c"
      ]
    },
    {
      "OID": "WC.LB.95f4de22",
      "conditions": [
        "COND.LB.LBTESTCD.ca27fffa",
        "COND.LB.LBSPEC.d1bfd10c"
      ]
    },
    {
      "OID": "WC.LB.92bd1f17",
      "conditions": [
        "COND.LB.LBTESTCD.e647bee9",
        "COND.LB.LBSPEC.d1bfd10c"
      ]
    },
    {
      "OID": "WC.LB.24c0e2bc",
      "conditions": [
        "COND.LB.LBTESTCD.347788eb",
        "COND.LB.LBSPEC.d1bfd10c"
      ]
    },
    {
      "OID": "WC.LB.351df44b",
      "conditions": [
        "COND.LB.LBTESTCD.d093221c",
        "COND.LB.LBSPEC.f6f6df0c"
      ]
    },
    {
      "OID": "WC.LB.5f2a0bab",
      "conditions": [
        "COND.LB.LBTESTCD.d7f9d982",
        "COND.LB.LBSPEC.f6f6df0c"
      ]
    },
    {
      "OID": "WC.LB.eea0ae49",
      "conditions": [
        "COND.LB.LBTESTCD.ee1bd4eb",
        "COND.LB.LBSPEC.f6f6df0c"
      ]
    },
    {
      "OID": "WC.LB.550c7a01",
      "conditions": [
        "COND.LB.LBTESTCD.7949af26",
        "COND.LB.LBSPEC.f6f6df0c"
      ]
    },
    {
      "OID": "WC.LB.de4c119b",
      "conditions": [
        "COND.LB.LBTESTCD.875d3e51",
        "COND.LB.LBSPEC.f6f6df0c"
      ]
    },
    {
      "OID": "WC.LB.a5684311",
      "conditions": [
        "COND.LB.LBTESTCD.67b49e63",
        "COND.LB.LBSPEC.f6f6df0c"
      ]
    },
    {
      "OID": "WC.LB.7b86c15b",
      "conditions": [
        "COND.LB.LBTESTCD.287c5431",
        "COND.LB.LBSPEC.f6f6df0c"
      ]
    },
    {
      "OID": "WC.LB.3a9d73e1",
      "conditions": [
        "COND.LB.LBTESTCD.e319c1c9",
        "COND.LB.LBSPEC.f6f6df0c"
      ]
    },
    {
      "OID": "WC.LB.ddc3319f",
      "conditions": [
        "COND.LB.LBTESTCD.595603b0",
        "COND.LB.LBSPEC.e9dcc27d"
      ]
    },
    {
      "OID": "WC.LB.116f85e4",
      "conditions": [
        "COND.LB.LBTESTCD.4a019cc1",
        "COND.LB.LBSPEC.e9dcc27d"
      ]
    },
    {
      "OID": "WC.LB.84ceb0ad",
      "conditions": [
        "COND.LB.LBTESTCD.4c8c90fb",
        "COND.LB.LBSPEC.f6f6df0c"
      ]
    },
    {
      "OID": "WC.LB.b622c728",
      "conditions": [
        "COND.LB.LBTESTCD.44179c1d",
        "COND.LB.LBSPEC.f6f6df0c"
      ]
    },
    {
      "OID": "WC.LB.87b1b367",
      "conditions": [
        "COND.LB.LBTESTCD.279ee1d7",
        "COND.LB.LBSPEC.f6f6df0c"
      ]
    },
    {
      "OID": "WC.LB.5412b298",
      "conditions": [
        "COND.LB.LBTESTCD.2cf3f505",
        "COND.LB.LBSPEC.2a0ba9ed"
      ]
    },
    {
      "OID": "WC.LB.e42a3c09",
      "conditions": [
        "COND.LB.LBTESTCD.65d4f752",
        "COND.LB.LBSPEC.fe2e0fb3"
      ]
    },
    {
      "OID": "WC.LB.cdac7fcc",
      "conditions": [
        "COND.LB.LBTESTCD.b2d661b6",
        "COND.LB.LBSPEC.2a0ba9ed"
      ]
    },
    {
      "OID": "WC.LB.b9d7ddba",
      "conditions": [
        "COND.LB.LBTESTCD.ee16e022",
        "COND.LB.LBSPEC.2a0ba9ed"
      ]
    },
    {
      "OID": "WC.LB.969c1a6d",
      "conditions": [
        "COND.LB.LBTESTCD.09d56ffc",
        "COND.LB.LBSPEC.fe2e0fb3"
      ]
    },
    {
      "OID": "WC.LB.7ce691fd",
      "conditions": [
        "COND.LB.LBTESTCD.5e7b0134",
        "COND.LB.LBSPEC.fe2e0fb3"
      ]
    },
    {
      "OID": "WC.LB.88601b52",
      "conditions": [
        "COND.LB.LBTESTCD.1f6a1d0f",
        "COND.LB.LBSPEC.fe2e0fb3"
      ]
    },
    {
      "OID": "WC.LB.42392cd1",
      "conditions": [
        "COND.LB.LBTESTCD.c95065ae",
        "COND.LB.LBSPEC.2a0ba9ed"
      ]
    },
    {
      "OID": "WC.LB.9279ec22",
      "conditions": [
        "COND.LB.LBTESTCD.608ed901",
        "COND.LB.LBSPEC.f6f6df0c"
      ]
    },
    {
      "OID": "WC.LB.8b779a3b",
      "conditions": [
        "COND.LB.LBTESTCD.4bda7613",
        "COND.LB.LBSPEC.2a0ba9ed"
      ]
    },
    {
      "OID": "WC.LB.cfe14422",
      "conditions": [
        "COND.LB.LBTESTCD.fb28452f",
        "COND.LB.LBSPEC.fe2e0fb3"
      ]
    },
    {
      "OID": "WC.LB.8285c765",
      "conditions": [
        "COND.LB.LBTESTCD.4ea796f7",
        "COND.LB.LBSPEC.2a0ba9ed"
      ]
    },
    {
      "OID": "WC.LB.37c7b4ba",
      "conditions": [
        "COND.LB.LBTESTCD.4787c4c4",
        "COND.LB.LBSPEC.2a0ba9ed"
      ]
    },
    {
      "OID": "WC.LB.e4e81dc5",
      "conditions": [
        "COND.LB.LBTESTCD.9181afaf",
        "COND.LB.LBSPEC.2a0ba9ed"
      ]
    },
    {
      "OID": "WC.LB.470def9b",
      "conditions": [
        "COND.LB.LBTESTCD.9bb90c0f",
        "COND.LB.LBSPEC.2a0ba9ed"
      ]
    },
    {
      "OID": "WC.LB.c891c160",
      "conditions": [
        "COND.LB.LBTESTCD.5f3309c8",
        "COND.LB.LBSPEC.fe2e0fb3"
      ]
    },
    {
      "OID": "WC.LB.abcfd20c",
      "conditions": [
        "COND.LB.LBTESTCD.3705806a",
        "COND.LB.LBSPEC.fe2e0fb3"
      ]
    },
    {
      "OID": "WC.LB.5a1bca67",
      "conditions": [
        "COND.LB.LBTESTCD.546f62a6",
        "COND.LB.LBSPEC.2a0ba9ed"
      ]
    },
    {
      "OID": "WC.LB.4226ee02",
      "conditions": [
        "COND.LB.LBTESTCD.662421ca",
        "COND.LB.LBSPEC.2a0ba9ed"
      ]
    },
    {
      "OID": "WC.LB.df33e99e",
      "conditions": [
        "COND.LB.LBTESTCD.253a2d2c",
        "COND.LB.LBSPEC.2a0ba9ed"
      ]
    },
    {
      "OID": "WC.LB.30f3d8b3",
      "conditions": [
        "COND.LB.LBTESTCD.32179136",
        "COND.LB.LBSPEC.2a0ba9ed"
      ]
    },
    {
      "OID": "WC.LB.f59f4529",
      "conditions": [
        "COND.LB.LBTESTCD.68013b69",
        "COND.LB.LBSPEC.2a0ba9ed"
      ]
    },
    {
      "OID": "WC.LB.c54221c6",
      "conditions": [
        "COND.LB.LBTESTCD.af474d82",
        "COND.LB.LBSPEC.2a0ba9ed"
      ]
    },
    {
      "OID": "WC.LB.cb02cad8",
      "conditions": [
        "COND.LB.LBTESTCD.ee2fb0c8",
        "COND.LB.LBSPEC.2a0ba9ed"
      ]
    },
    {
      "OID": "WC.LB.d0f49556",
      "conditions": [
        "COND.LB.LBTESTCD.a07b5dee",
        "COND.LB.LBSPEC.2a0ba9ed"
      ]
    },
    {
      "OID": "WC.LB.4987b41e",
      "conditions": [
        "COND.LB.LBTESTCD.797729c2",
        "COND.LB.LBSPEC.fe2e0fb3"
      ]
    },
    {
      "OID": "WC.LB.cbf789d8",
      "conditions": [
        "COND.LB.LBTESTCD.5613f4c1",
        "COND.LB.LBSPEC.fe2e0fb3"
      ]
    },
    {
      "OID": "WC.LB.3239d7a3",
      "conditions": [
        "COND.LB.LBTESTCD.e6f6bca1",
        "COND.LB.LBSPEC.fe2e0fb3"
      ]
    },
    {
      "OID": "WC.LB.59366afe",
      "conditions": [
        "COND.LB.LBTESTCD.ce5391eb",
        "COND.LB.LBSPEC.fe2e0fb3"
      ]
    },
    {
      "OID": "WC.LB.3adc4566",
      "conditions": [
        "COND.LB.LBTESTCD.d277d8f1",
        "COND.LB.LBSPEC.22e91b54"
      ]
    },
    {
      "OID": "WC.LB.59074de1",
      "conditions": [
        "COND.LB.LBTESTCD.b3c8bdba",
        "COND.LB.LBSPEC.fe2e0fb3"
      ]
    },
    {
      "OID": "WC.LB.c1765eee",
      "conditions": [
        "COND.LB.LBTESTCD.1350d454",
        "COND.LB.LBSPEC.f6f6df0c"
      ]
    },
    {
      "OID": "WC.LB.dd459ec6",
      "conditions": [
        "COND.LB.LBTESTCD.5717b134",
        "COND.LB.LBSPEC.f6f6df0c"
      ]
    },
    {
      "OID": "WC.LB.e9a1c33d",
      "conditions": [
        "COND.LB.LBTESTCD.04aa6f0c",
        "COND.LB.LBSPEC.f6f6df0c",
        "COND.LB.LBMETHOD.ac001fcd"
      ]
    },
    {
      "OID": "WC.LB.7f0975c7",
      "conditions": [
        "COND.LB.LBTESTCD.2596a002",
        "COND.LB.LBSPEC.f6f6df0c"
      ]
    },
    {
      "OID": "WC.LB.f7f1de35",
      "conditions": [
        "COND.LB.LBTESTCD.f0b51e31",
        "COND.LB.LBSPEC.f6f6df0c"
      ]
    },
    {
      "OID": "WC.LB.c32acb17",
      "conditions": [
        "COND.LB.LBTESTCD.ca27fffa",
        "COND.LB.LBSPEC.d1bfd10c"
      ]
    },
    {
      "OID": "WC.LB.eb7f048a",
      "conditions": [
        "COND.LB.LBTESTCD.e647bee9",
        "COND.LB.LBSPEC.d1bfd10c"
      ]
    },
    {
      "OID": "WC.LB.e881d4b5",
      "conditions": [
        "COND.LB.LBTESTCD.347788eb",
        "COND.LB.LBSPEC.d1bfd10c"
      ]
    },
    {
      "OID": "WC.LB.41785be6",
      "conditions": [
        "COND.LB.LBTESTCD.d093221c",
        "COND.LB.LBSPEC.f6f6df0c"
      ]
    },
    {
      "OID": "WC.LB.a68e5eaa",
      "conditions": [
        "COND.LB.LBTESTCD.d7f9d982",
        "COND.LB.LBSPEC.f6f6df0c"
      ]
    },
    {
      "OID": "WC.LB.aad6dbd6",
      "conditions": [
        "COND.LB.LBTESTCD.ee1bd4eb",
        "COND.LB.LBSPEC.f6f6df0c"
      ]
    },
    {
      "OID": "WC.LB.d13d6578",
      "conditions": [
        "COND.LB.LBTESTCD.7949af26",
        "COND.LB.LBSPEC.f6f6df0c"
      ]
    },
    {
      "OID": "WC.LB.00e6d228",
      "conditions": [
        "COND.LB.LBTESTCD.875d3e51",
        "COND.LB.LBSPEC.f6f6df0c"
      ]
    },
    {
      "OID": "WC.LB.ef654de1",
      "conditions": [
        "COND.LB.LBTESTCD.67b49e63",
        "COND.LB.LBSPEC.f6f6df0c"
      ]
    },
    {
      "OID": "WC.LB.b6fa6e8d",
      "conditions": [
        "COND.LB.LBTESTCD.287c5431",
        "COND.LB.LBSPEC.f6f6df0c"
      ]
    },
    {
      "OID": "WC.LB.90eedf3b",
      "conditions": [
        "COND.LB.LBTESTCD.e319c1c9",
        "COND.LB.LBSPEC.f6f6df0c"
      ]
    },
    {
      "OID": "WC.LB.8914eb45",
      "conditions": [
        "COND.LB.LBTESTCD.2cf3f505",
        "COND.LB.LBSPEC.2a0ba9ed"
      ]
    },
    {
      "OID": "WC.LB.6660e11c",
      "conditions": [
        "COND.LB.LBTESTCD.b2d661b6",
        "COND.LB.LBSPEC.2a0ba9ed"
      ]
    },
    {
      "OID": "WC.LB.37e389df",
      "conditions": [
        "COND.LB.LBTESTCD.ee16e022",
        "COND.LB.LBSPEC.2a0ba9ed"
      ]
    },
    {
      "OID": "WC.LB.549f5ae4",
      "conditions": [
        "COND.LB.LBTESTCD.09d56ffc",
        "COND.LB.LBSPEC.fe2e0fb3"
      ]
    },
    {
      "OID": "WC.LB.ee634517",
      "conditions": [
        "COND.LB.LBTESTCD.5e7b0134",
        "COND.LB.LBSPEC.fe2e0fb3"
      ]
    },
    {
      "OID": "WC.LB.07a8daa1",
      "conditions": [
        "COND.LB.LBTESTCD.1f6a1d0f",
        "COND.LB.LBSPEC.fe2e0fb3"
      ]
    },
    {
      "OID": "WC.LB.91d1c3d5",
      "conditions": [
        "COND.LB.LBTESTCD.c95065ae",
        "COND.LB.LBSPEC.2a0ba9ed"
      ]
    },
    {
      "OID": "WC.LB.9df0845c",
      "conditions": [
        "COND.LB.LBTESTCD.608ed901",
        "COND.LB.LBSPEC.f6f6df0c"
      ]
    },
    {
      "OID": "WC.LB.cc8b6004",
      "conditions": [
        "COND.LB.LBTESTCD.4bda7613",
        "COND.LB.LBSPEC.2a0ba9ed"
      ]
    },
    {
      "OID": "WC.LB.3c564f36",
      "conditions": [
        "COND.LB.LBTESTCD.4ea796f7",
        "COND.LB.LBSPEC.2a0ba9ed"
      ]
    },
    {
      "OID": "WC.LB.13fbb1a5",
      "conditions": [
        "COND.LB.LBTESTCD.4787c4c4",
        "COND.LB.LBSPEC.2a0ba9ed"
      ]
    },
    {
      "OID": "WC.LB.3749493c",
      "conditions": [
        "COND.LB.LBTESTCD.9181afaf",
        "COND.LB.LBSPEC.2a0ba9ed"
      ]
    },
    {
      "OID": "WC.LB.38f9f39d",
      "conditions": [
        "COND.LB.LBTESTCD.9bb90c0f",
        "COND.LB.LBSPEC.2a0ba9ed"
      ]
    },
    {
      "OID": "WC.LB.516f3664",
      "conditions": [
        "COND.LB.LBTESTCD.546f62a6",
        "COND.LB.LBSPEC.2a0ba9ed"
      ]
    },
    {
      "OID": "WC.LB.dcbcbe57",
      "conditions": [
        "COND.LB.LBTESTCD.662421ca",
        "COND.LB.LBSPEC.2a0ba9ed"
      ]
    },
    {
      "OID": "WC.LB.b7b215a1",
      "conditions": [
        "COND.LB.LBTESTCD.253a2d2c",
        "COND.LB.LBSPEC.2a0ba9ed"
      ]
    },
    {
      "OID": "WC.LB.0f071538",
      "conditions": [
        "COND.LB.LBTESTCD.32179136",
        "COND.LB.LBSPEC.2a0ba9ed"
      ]
    },
    {
      "OID": "WC.LB.258e657c",
      "conditions": [
        "COND.LB.LBTESTCD.68013b69",
        "COND.LB.LBSPEC.2a0ba9ed"
      ]
    },
    {
      "OID": "WC.LB.d675561c",
      "conditions": [
        "COND.LB.LBTESTCD.af474d82",
        "COND.LB.LBSPEC.2a0ba9ed"
      ]
    },
    {
      "OID": "WC.LB.e81938d6",
      "conditions": [
        "COND.LB.LBTESTCD.ee2fb0c8",
        "COND.LB.LBSPEC.2a0ba9ed"
      ]
    },
    {
      "OID": "WC.LB.54dda2d1",
      "conditions": [
        "COND.LB.LBTESTCD.a07b5dee",
        "COND.LB.LBSPEC.2a0ba9ed"
      ]
    },
    {
      "OID": "WC.LB.e6a434ec",
      "conditions": [
        "COND.LB.LBTESTCD.ce5391eb",
        "COND.LB.LBSPEC.fe2e0fb3"
      ]
    },
    {
      "OID": "WC.LB.9e9118c8",
      "conditions": [
        "COND.LB.LBTESTCD.1350d454",
        "COND.LB.LBSPEC.f6f6df0c"
      ]
    },
    {
      "OID": "WC.LB.8644d9ca",
      "conditions": [
        "COND.LB.LBTESTCD.5717b134",
        "COND.LB.LBSPEC.f6f6df0c"
      ]
    },
    {
      "OID": "WC.MB.49773274",
      "conditions": [
        "COND.MB.MBTESTCD.b145c972",
        "COND.MB.MBTSTDTL.4a168fd0",
        "COND.MB.MBSPEC.41a5e97b",
        "COND.MB.MBMETHOD.6348a3e5"
      ]
    },
    {
      "OID": "WC.MB.e698c5a2",
      "conditions": [
        "COND.MB.MBTESTCD.18cb7208",
        "COND.MB.MBTSTDTL.4a168fd0",
        "COND.MB.MBSPEC.b395cb00",
        "COND.MB.MBMETHOD.92bec008"
      ]
    },
    {
      "OID": "WC.IE.1d2bb25f",
      "conditions": [
        "COND.IE.IETESTCD.02e45534"
      ]
    },
    {
      "OID": "WC.IE.fa688bf3",
      "conditions": [
        "COND.IE.IETESTCD.b98e6bfa"
      ]
    },
    {
      "OID": "WC.IE.f276b607",
      "conditions": [
        "COND.IE.IETESTCD.414aa6b7"
      ]
    },
    {
      "OID": "WC.IE.cd528448",
      "conditions": [
        "COND.IE.IETESTCD.5600ece7"
      ]
    },
    {
      "OID": "WC.IE.c1db3fd3",
      "conditions": [
        "COND.IE.IETESTCD.e62058fb"
      ]
    },
    {
      "OID": "WC.IE.c2ec614b",
      "conditions": [
        "COND.IE.IETESTCD.cae1a567"
      ]
    },
    {
      "OID": "WC.IE.2ef341aa",
      "conditions": [
        "COND.IE.IETESTCD.0b4d25da"
      ]
    },
    {
      "OID": "WC.IE.5d85184b",
      "conditions": [
        "COND.IE.IETESTCD.dd1bb437"
      ]
    },
    {
      "OID": "WC.IE.8579104c",
      "conditions": [
        "COND.IE.IETESTCD.b86f72a6"
      ]
    },
    {
      "OID": "WC.IE.74eacc45",
      "conditions": [
        "COND.IE.IETESTCD.ee806e62"
      ]
    },
    {
      "OID": "WC.IE.ce0e8d09",
      "conditions": [
        "COND.IE.IETESTCD.13b40508"
      ]
    },
    {
      "OID": "WC.IE.945bafbd",
      "conditions": [
        "COND.IE.IETESTCD.27412cd0"
      ]
    },
    {
      "OID": "WC.IE.afbec960",
      "conditions": [
        "COND.IE.IETESTCD.c264aeb4"
      ]
    },
    {
      "OID": "WC.IE.cac0d3f4",
      "conditions": [
        "COND.IE.IETESTCD.904b6c2f"
      ]
    },
    {
      "OID": "WC.IE.cabd9be0",
      "conditions": [
        "COND.IE.IETESTCD.29880e8c"
      ]
    },
    {
      "OID": "WC.IE.fbae7983",
      "conditions": [
        "COND.IE.IETESTCD.7f6091a2"
      ]
    },
    {
      "OID": "WC.IE.0952c014",
      "conditions": [
        "COND.IE.IETESTCD.8f18d21b"
      ]
    },
    {
      "OID": "WC.IE.5b8b02b2",
      "conditions": [
        "COND.IE.IETESTCD.86209c99"
      ]
    },
    {
      "OID": "WC.IE.70a941e7",
      "conditions": [
        "COND.IE.IETESTCD.aab5d609"
      ]
    },
    {
      "OID": "WC.IE.611f5d7b",
      "conditions": [
        "COND.IE.IETESTCD.25355161"
      ]
    },
    {
      "OID": "WC.IE.8abff918",
      "conditions": [
        "COND.IE.IETESTCD.a38963bd"
      ]
    },
    {
      "OID": "WC.IE.b089a2a0",
      "conditions": [
        "COND.IE.IETESTCD.4f25707e"
      ]
    },
    {
      "OID": "WC.IE.39cb2456",
      "conditions": [
        "COND.IE.IETESTCD.2a079ede"
      ]
    },
    {
      "OID": "WC.IE.2cdb5c18",
      "conditions": [
        "COND.IE.IETESTCD.871b7729"
      ]
    },
    {
      "OID": "WC.IE.b415f3a9",
      "conditions": [
        "COND.IE.IETESTCD.51c4af93"
      ]
    },
    {
      "OID": "WC.IE.5c29f970",
      "conditions": [
        "COND.IE.IETESTCD.a954a7c8"
      ]
    },
    {
      "OID": "WC.IE.9fe9a358",
      "conditions": [
        "COND.IE.IETESTCD.8f66ca7f"
      ]
    },
    {
      "OID": "WC.IE.e36b210b",
      "conditions": [
        "COND.IE.IETESTCD.528d2eb0"
      ]
    },
    {
      "OID": "WC.IE.743b4fb5",
      "conditions": [
        "COND.IE.IETESTCD.bd5f1313"
      ]
    },
    {
      "OID": "WC.IE.76a82754",
      "conditions": [
        "COND.IE.IETESTCD.01e1c173"
      ]
    },
    {
      "OID": "WC.IE.fbeb5a1e",
      "conditions": [
        "COND.IE.IETESTCD.b8e48983"
      ]
    },
    {
      "OID": "WC.SE.ef0bfe06",
      "conditions": [
        "COND.SE.ETCD.a5ec67be"
      ]
    },
    {
      "OID": "WC.SE.fd73ada9",
      "conditions": [
        "COND.SE.ETCD.b57045b1"
      ]
    },
    {
      "OID": "WC.SE.7f36565b",
      "conditions": [
        "COND.SE.ETCD.d92b848b"
      ]
    },
    {
      "OID": "WC.SE.e02c83c0",
      "conditions": [
        "COND.SE.ETCD.81a5ce8a"
      ]
    },
    {
      "OID": "WC.SE.0f456498",
      "conditions": [
        "COND.SE.ETCD.4826314e"
      ]
    },
    {
      "OID": "WC.SE.64e8e407",
      "conditions": [
