{"datasetJSONCreationDateTime":"2024-12-18T15:34:28","datasetJSONVersion":"1.1.0","fileOID":"CDISCPILOT01.adlbhy","dbLastModifiedDateTime":"2012-10-15T22:56:19","originator":"CDISC Data Exchange Standards Team","sourceSystem":{"name":"SAS on X64_10PRO","version":"9.0401M7"},"studyOID":"CDISCPILOT01","metaDataVersionOID":"CDISC.ADaM.2.1","metaDataRef":"define.xml","itemGroupOID":"ADLBHY","records":9954,"name":"ADLBHY","label":"Analysis Dataset Lab Hy's Law","columns":[{"itemOID":"ADLBHY.STUDYID","name":"STUDYID","label":"Study Identifier","dataType":"string","length":12},{"itemOID":"ADLBHY.SUBJID","name":"SUBJID","label":"Subject Identifier for the Study","dataType":"string","length":4},{"itemOID":"ADLBHY.USUBJID","name":"USUBJID","label":"Unique Subject Identifier","dataType":"string","length":11,"keySequence":1},{"itemOID":"ADLBHY.TRTP","name":"TRTP","label":"Planned Treatment","dataType":"string","length":20},{"itemOID":"ADLBHY.TRTPN","name":"TRTPN","label":"Planned Treatment (N)","dataType":"integer"},{"itemOID":"ADLBHY.TRTA","name":"TRTA","label":"Actual Treatment","dataType":"string","length":20},{"itemOID":"ADLBHY.TRTAN","name":"TRTAN","label":"Actual Treatment (N)","dataType":"integer"},{"itemOID":"ADLBHY.TRTSDT","name":"TRTSDT","label":"Date of First Exposure to Treatment","dataType":"date","targetDataType":"integer","displayFormat":"DATE9."},{"itemOID":"ADLBHY.TRTEDT","name":"TRTEDT","label":"Date of Last Exposure to Treatment","dataType":"date","targetDataType":"integer","displayFormat":"DATE9."},{"itemOID":"ADLBHY.AGE","name":"AGE","label":"Age","dataType":"integer"},{"itemOID":"ADLBHY.AGEGR1","name":"AGEGR1","label":"Pooled Age Group 1","dataType":"string","length":5},{"itemOID":"ADLBHY.AGEGR1N","name":"AGEGR1N","label":"Pooled Age Group 1 (N)","dataType":"integer"},{"itemOID":"ADLBHY.RACE","name":"RACE","label":"Race","dataType":"string","length":32},{"itemOID":"ADLBHY.RACEN","name":"RACEN","label":"Race (N)","dataType":"integer"},{"itemOID":"ADLBHY.SEX","name":"SEX","label":"Sex","dataType":"string","length":1},{"itemOID":"ADLBHY.COMP24FL","name":"COMP24FL","label":"Completers of Week 24 Population Flag","dataType":"string","length":1},{"itemOID":"ADLBHY.DSRAEFL","name":"DSRAEFL","label":"Discontinued due to AE?","dataType":"string","length":1},{"itemOID":"ADLBHY.SAFFL","name":"SAFFL","label":"Safety Population Flag","dataType":"string","length":1},{"itemOID":"ADLBHY.AVISIT","name":"AVISIT","label":"Analysis Visit","dataType":"string","length":16,"keySequence":3},{"itemOID":"ADLBHY.AVISITN","name":"AVISITN","label":"Analysis Visit (N)","dataType":"integer"},{"itemOID":"ADLBHY.ADY","name":"ADY","label":"Analysis Relative Day","dataType":"integer"},{"itemOID":"ADLBHY.ADT","name":"ADT","label":"Analysis Date","dataType":"date","targetDataType":"integer","displayFormat":"DATE9."},{"itemOID":"ADLBHY.VISIT","name":"VISIT","label":"Visit Name","dataType":"string","length":19},{"itemOID":"ADLBHY.VISITNUM","name":"VISITNUM","label":"Visit Number","dataType":"decimal"},{"itemOID":"ADLBHY.PARAMTYP","name":"PARAMTYP","label":"Parameter Type","dataType":"string","length":7},{"itemOID":"ADLBHY.PARAM","name":"PARAM","label":"Parameter","dataType":"string","length":100},{"itemOID":"ADLBHY.PARAMCD","name":"PARAMCD","label":"Parameter Code","dataType":"string","length":8,"keySequence":2},{"itemOID":"ADLBHY.PARAMN","name":"PARAMN","label":"Parameter (N)","dataType":"integer"},{"itemOID":"ADLBHY.PARCAT1","name":"PARCAT1","label":"Parameter Category 1","dataType":"string","length":5},{"itemOID":"ADLBHY.AVAL","name":"AVAL","label":"Analysis Value","dataType":"float"},{"itemOID":"ADLBHY.BASE","name":"BASE","label":"Baseline Value","dataType":"float"},{"itemOID":"ADLBHY.A1LO","name":"A1LO","label":"Analysis Range 1 Lower Limit","dataType":"float"},{"itemOID":"ADLBHY.A1HI","name":"A1HI","label":"Analysis Range 1 Upper Limit","dataType":"float"},{"itemOID":"ADLBHY.R2A1LO","name":"R2A1LO","label":"Ratio to Analysis Range 1 Lower Limit","dataType":"float"},{"itemOID":"ADLBHY.R2A1HI","name":"R2A1HI","label":"Ratio to Analysis Range 1 Upper Limit","dataType":"float"},{"itemOID":"ADLBHY.BR2A1LO","name":"BR2A1LO","label":"Base Ratio to Analysis Range 1 Lower Lim","dataType":"float"},{"itemOID":"ADLBHY.BR2A1HI","name":"BR2A1HI","label":"Base Ratio to Analysis Range 1 Upper Lim","dataType":"float"},{"itemOID":"ADLBHY.ABLFL","name":"ABLFL","label":"Baseline Record Flag","dataType":"string","length":1},{"itemOID":"ADLBHY.SHIFT1","name":"SHIFT1","label":"Shift 1","dataType":"string","length":16},{"itemOID":"ADLBHY.SHIFT1N","name":"SHIFT1N","label":"Shift 1 (N)","dataType":"integer"},{"itemOID":"ADLBHY.CRIT1","name":"CRIT1","label":"Analysis Criterion 1","dataType":"string","length":12},{"itemOID":"ADLBHY.CRIT1FL","name":"CRIT1FL","label":"Criterion 1 Evaluation Result Flag","dataType":"string","length":1},{"itemOID":"ADLBHY.CRIT1FN","name":"CRIT1FN","label":"Criterion 1 Evaluation Result Flag (N)","dataType":"integer"}],"rows":[["CDISCPILOT01","1015","01-701-1015","Placebo",0,"Placebo",0,"2014-01-02","2014-07-02",63,"<65",1,"WHITE",1,"F","Y","","Y","        Baseline",0,-7,"2013-12-26","SCREENING 1",1,"","Alanine Aminotransferase (U/L)","ALT",1,"CHEM",27,27,6,34,4.5,0.794117647059,4.5,0.794117647059,"Y","",null,"R2A1HI > 1.5","N",0],["CDISCPILOT01","1015","01-701-1015","Placebo",0,"Placebo",0,"2014-01-02","2014-07-02",63,"<65",1,"WHITE",1,"F","Y","","Y","        Baseline",0,-7,"2013-12-26","SCREENING 1",1,"","Aspartate Aminotransferase (U/L)","AST",2,"CHEM",40,40,9,34,4.44444444444,1.17647058824,4.44444444444,1.17647058824,"Y","",null,"R2A1HI > 1.5","N",0],["CDISCPILOT01","1015","01-701-1015","Placebo",0,"Placebo",0,"2014-01-02","2014-07-02",63,"<65",1,"WHITE",1,"F","Y","","Y","        Baseline",0,-7,"2013-12-26","SCREENING 1",1,"","Bilirubin (umol/L)","BILI",3,"CHEM",10.26,10.26,3,21,3.42,0.488571428571,3.42,0.488571428571,"Y","",null,"R2A1HI > 1.5","N",0],["CDISCPILOT01","1015","01-701-1015","Placebo",0,"Placebo",0,"2014-01-02","2014-07-02",63,"<65",1,"WHITE",1,"F","Y","","Y","        Baseline",0,null,null,"",null,"DERIVED","Bilirubin 1.5 x ULN","BILIHY",4,"HYLAW",0,0,null,null,null,null,null,null,"Y","Normal to Normal",1,"","",null],["CDISCPILOT01","1015","01-701-1015","Placebo",0,"Placebo",0,"2014-01-02","2014-07-02",63,"<65",1,"WHITE",1,"F","Y","","Y","        Baseline",0,null,null,"",null,"DERIVED","Transaminase 1.5 x ULN","TRANSHY",5,"HYLAW",0,0,null,null,null,null,null,null,"Y","Normal to Normal",1,"","",null],["CDISCPILOT01","1015","01-701-1015","Placebo",0,"Placebo",0,"2014-01-02","2014-07-02",63,"<65",1,"WHITE",1,"F","Y","","Y","        Baseline",0,null,null,"",null,"DERIVED","Total Bili 1.5 x ULN and Transaminase 1.5 x ULN","HYLAW",6,"HYLAW",0,0,null,null,null,null,null,null,"Y","Normal to Normal",1,"","",null],["CDISCPILOT01","1015","01-701-1015","Placebo",0,"Placebo",0,"2014-01-02","2014-07-02",63,"<65",1,"WHITE",1,"F","Y","","Y","          Week 2",2,15,"2014-01-16","WEEK 2",4,"","Alanine Aminotransferase (U/L)","ALT",1,"CHEM",41,27,6,34,6.83333333333,1.20588235294,4.5,0.794117647059,"","",null,"R2A1HI > 1.5","N",0],["CDISCPILOT01","1015","01-701-1015","Placebo",0,"Placebo",0,"2014-01-02","2014-07-02",63,"<65",1,"WHITE",1,"F","Y","","Y","          Week 2",2,15,"2014-01-16","WEEK 2",4,"","Aspartate Aminotransferase (U/L)","AST",2,"CHEM",33,40,9,34,3.66666666667,0.970588235294,4.44444444444,1.17647058824,"","",null,"R2A1HI > 1.5","N",0],["CDISCPILOT01","1015","01-701-1015","Placebo",0,"Placebo",0,"2014-01-02","2014-07-02",63,"<65",1,"WHITE",1,"F","Y","","Y","          Week 2",2,15,"2014-01-16","WEEK 2",4,"","Bilirubin (umol/L)","BILI",3,"CHEM",8.55,10.26,3,21,2.85,0.407142857143,3.42,0.488571428571,"","",null,"R2A1HI > 1.5","N",0],["CDISCPILOT01","1015","01-701-1015","Placebo",0,"Placebo",0,"2014-01-02","2014-07-02",63,"<65",1,"WHITE",1,"F","Y","","Y","          Week 2",2,null,null,"",null,"DERIVED","Bilirubin 1.5 x ULN","BILIHY",4,"HYLAW",0,0,null,null,null,null,null,null,"","Normal to Normal",1,"","",null],["CDISCPILOT01","1015","01-701-1015","Placebo",0,"Placebo",0,"2014-01-02","2014-07-02",63,"<65",1,"WHITE",1,"F","Y","","Y","          Week 2",2,null,null,"",null,"DERIVED","Transaminase 1.5 x ULN","TRANSHY",5,"HYLAW",0,0,null,null,null,null,null,null,"","Normal to Normal",1,"","",null],["CDISCPILOT01","1015","01-701-1015","Placebo",0,"Placebo",0,"2014-01-02","2014-07-02",63,"<65",1,"WHITE",1,"F","Y","","Y","          Week 2",2,null,null,"",null,"DERIVED","Total Bili 1.5 x ULN and Transaminase 1.5 x ULN","HYLAW",6,"HYLAW",0,0,null,null,null,null,null,null,"","Normal to Normal",1,"","",null],["CDISCPILOT01","1015","01-701-1015","Placebo",0,"Placebo",0,"2014-01-02","2014-07-02",63,"<65",1,"WHITE",1,"F","Y","","Y","          Week 4",4,29,"2014-01-30","WEEK 4",5,"","Alanine Aminotransferase (U/L)","ALT",1,"CHEM",18,27,6,34,3,0.529411764706,4.5,0.794117647059,"","",null,"R2A1HI > 1.5","N",0],["CDISCPILOT01","1015","01-701-1015","Placebo",0,"Placebo",0,"2014-01-02","2014-07-02",63,"<65",1,"WHITE",1,"F","Y","","Y","          Week 4",4,29,"2014-01-30","WEEK 4",5,"","Aspartate Aminotransferase (U/L)","AST",2,"CHEM",21,40,9,34,2.33333333333,0.617647058824,4.44444444444,1.17647058824,"","",null,"R2A1HI > 1.5","N",0],["CDISCPILOT01","1015","01-701-1015","Placebo",0,"Placebo",0,"2014-01-02","2014-07-02",63,"<65",1,"WHITE",1,"F","Y","","Y","          Week 4",4,29,"2014-01-30","WEEK 4",5,"","Bilirubin (umol/L)","BILI",3,"CHEM",6.84,10.26,3,21,2.28,0.325714285714,3.42,0.488571428571,"","",null,"R2A1HI > 1.5","N",0],["CDISCPILOT01","1015","01-701-1015","Placebo",0,"Placebo",0,"2014-01-02","2014-07-02",63,"<65",1,"WHITE",1,"F","Y","","Y","          Week 4",4,null,null,"",null,"DERIVED","Bilirubin 1.5 x ULN","BILIHY",4,"HYLAW",0,0,null,null,null,null,null,null,"","Normal to Normal",1,"","",null],["CDISCPILOT01","1015","01-701-1015","Placebo",0,"Placebo",0,"2014-01-02","2014-07-02",63,"<65",1,"WHITE",1,"F","Y","","Y","          Week 4",4,null,null,"",null,"DERIVED","Transaminase 1.5 x ULN","TRANSHY",5,"HYLAW",0,0,null,null,null,null,null,null,"","Normal to Normal",1,"","",null],["CDISCPILOT01","1015","01-701-1015","Placebo",0,"Placebo",0,"2014-01-02","2014-07-02",63,"<65",1,"WHITE",1,"F","Y","","Y","          Week 4",4,null,null,"",null,"DERIVED","Total Bili 1.5 x ULN and Transaminase 1.5 x ULN","HYLAW",6,"HYLAW",0,0,null,null,null,null,null,null,"","Normal to Normal",1,"","",null],["CDISCPILOT01","1015","01-701-1015","Placebo",0,"Placebo",0,"2014-01-02","2014-07-02",63,"<65",1,"WHITE",1,"F","Y","","Y","          Week 6",6,42,"2014-02-12","WEEK 6",7,"","Alanine Aminotransferase (U/L)","ALT",1,"CHEM",26,27,6,34,4.33333333333,0.764705882353,4.5,0.794117647059,"","",null,"R2A1HI > 1.5","N",0],["CDISCPILOT01","1015","01-701-1015","Placebo",0,"Placebo",0,"2014-01-02","2014-07-02",63,"<65",1,"WHITE",1,"F","Y","","Y","          Week 6",6,42,"2014-02-12","WEEK 6",7,"","Aspartate Aminotransferase (U/L)","AST",2,"CHEM",26,40,9,34,2.88888888889,0.764705882353,4.44444444444,1.17647058824,"","",null,"R2A1HI > 1.5","N",0],["CDISCPILOT01","1015","01-701-1015","Placebo",0,"Placebo",0,"2014-01-02","2014-07-02",63,"<65",1,"WHITE",1,"F","Y","","Y","          Week 6",6,42,"2014-02-12","WEEK 6",7,"","Bilirubin (umol/L)","BILI",3,"CHEM",5.13,10.26,3,21,1.71,0.244285714286,3.42,0.488571428571,"","",null,"R2A1HI > 1.5","N",0],["CDISCPILOT01","1015","01-701-1015","Placebo",0,"Placebo",0,"2014-01-02","2014-07-02",63,"<65",1,"WHITE",1,"F","Y","","Y","          Week 6",6,null,null,"",null,"DERIVED","Bilirubin 1.5 x ULN","BILIHY",4,"HYLAW",0,0,null,null,null,null,null,null,"","Normal to Normal",1,"","",null],["CDISCPILOT01","1015","01-701-1015","Placebo",0,"Placebo",0,"2014-01-02","2014-07-02",63,"<65",1,"WHITE",1,"F","Y","","Y","          Week 6",6,null,null,"",null,"DERIVED","Transaminase 1.5 x ULN","TRANSHY",5,"HYLAW",0,0,null,null,null,null,null,null,"","Normal to Normal",1,"","",null],["CDISCPILOT01","1015","01-701-1015","Placebo",0,"Placebo",0,"2014-01-02","2014-07-02",63,"<65",1,"WHITE",1,"F","Y","","Y","          Week 6",6,null,null,"",null,"DERIVED","Total Bili 1.5 x ULN and Transaminase 1.5 x ULN","HYLAW",6,"HYLAW",0,0,null,null,null,null,null,null,"","Normal to Normal",1,"","",null],["CDISCPILOT01","1015","01-701-1015","Placebo",0,"Placebo",0,"2014-01-02","2014-07-02",63,"<65",1,"WHITE",1,"F","Y","","Y","          Week 8",8,63,"2014-03-05","WEEK 8",8,"","Alanine Aminotransferase (U/L)","ALT",1,"CHEM",22,27,6,34,3.66666666667,0.647058823529,4.5,0.794117647059,"","",null,"R2A1HI > 1.5","N",0],["CDISCPILOT01","1015","01-701-1015","Placebo",0,"Placebo",0,"2014-01-02","2014-07-02",63,"<65",1,"WHITE",1,"F","Y","","Y","          Week 8",8,63,"2014-03-05","WEEK 8",8,"","Aspartate Aminotransferase (U/L)","AST",2,"CHEM",21,40,9,34,2.33333333333,0.617647058824,4.44444444444,1.17647058824,"","",null,"R2A1HI > 1.5","N",0],["CDISCPILOT01","1015","01-701-1015","Placebo",0,"Placebo",0,"2014-01-02","2014-07-02",63,"<65",1,"WHITE",1,"F","Y","","Y","          Week 8",8,63,"2014-03-05","WEEK 8",8,"","Bilirubin (umol/L)","BILI",3,"CHEM",8.55,10.26,3,21,2.85,0.407142857143,3.42,0.488571428571,"","",null,"R2A1HI > 1.5","N",0],["CDISCPILOT01","1015","01-701-1015","Placebo",0,"Placebo",0,"2014-01-02","2014-07-02",63,"<65",1,"WHITE",1,"F","Y","","Y","          Week 8",8,null,null,"",null,"DERIVED","Bilirubin 1.5 x ULN","BILIHY",4,"HYLAW",0,0,null,null,null,null,null,null,"","Normal to Normal",1,"","",null],["CDISCPILOT01","1015","01-701-1015","Placebo",0,"Placebo",0,"2014-01-02","2014-07-02",63,"<65",1,"WHITE",1,"F","Y","","Y","          Week 8",8,null,null,"",null,"DERIVED","Transaminase 1.5 x ULN","TRANSHY",5,"HYLAW",0,0,null,null,null,null,null,null,"","Normal to Normal",1,"","",null],["CDISCPILOT01","1015","01-701-1015","Placebo",0,"Placebo",0,"2014-01-02","2014-07-02",63,"<65",1,"WHITE",1,"F","Y","","Y","          Week 8",8,null,null,"",null,"DERIVED","Total Bili 1.5 x ULN and Transaminase 1.5 x ULN","HYLAW",6,"HYLAW",0,0,null,null,null,null,null,null,"","Normal to Normal",1,"","",null],["CDISCPILOT01","1015","01-701-1015","Placebo",0,"Placebo",0,"2014-01-02","2014-07-02",63,"<65",1,"WHITE",1,"F","Y","","Y","         Week 12",12,84,"2014-03-26","WEEK 12",9,"","Alanine Aminotransferase (U/L)","ALT",1,"CHEM",27,27,6,34,4.5,0.794117647059,4.5,0.794117647059,"","",null,"R2A1HI > 1.5","N",0],["CDISCPILOT01","1015","01-701-1015","Placebo",0,"Placebo",0,"2014-01-02","2014-07-02",63,"<65",1,"WHITE",1,"F","Y","","Y","         Week 12",12,84,"2014-03-26","WEEK 12",9,"","Aspartate Aminotransferase (U/L)","AST",2,"CHEM",22,40,9,34,2.44444444444,0.647058823529,4.44444444444,1.17647058824,"","",null,"R2A1HI > 1.5","N",0],["CDISCPILOT01","1015","01-701-1015","Placebo",0,"Placebo",0,"2014-01-02","2014-07-02",63,"<65",1,"WHITE",1,"F","Y","","Y","         Week 12",12,84,"2014-03-26","WEEK 12",9,"","Bilirubin (umol/L)","BILI",3,"CHEM",6.84,10.26,3,21,2.28,0.325714285714,3.42,0.488571428571,"","",null,"R2A1HI > 1.5","N",0],["CDISCPILOT01","1015","01-701-1015","Placebo",0,"Placebo",0,"2014-01-02","2014-07-02",63,"<65",1,"WHITE",1,"F","Y","","Y","         Week 12",12,null,null,"",null,"DERIVED","Bilirubin 1.5 x ULN","BILIHY",4,"HYLAW",0,0,null,null,null,null,null,null,"","Normal to Normal",1,"","",null],["CDISCPILOT01","1015","01-701-1015","Placebo",0,"Placebo",0,"2014-01-02","2014-07-02",63,"<65",1,"WHITE",1,"F","Y","","Y","         Week 12",12,null,null,"",null,"DERIVED","Transaminase 1.5 x ULN","TRANSHY",5,"HYLAW",0,0,null,null,null,null,null,null,"","Normal to Normal",1,"","",null],["CDISCPILOT01","1015","01-701-1015","Placebo",0,"Placebo",0,"2014-01-02","2014-07-02",63,"<65",1,"WHITE",1,"F","Y","","Y","         Week 12",12,null,null,"",null,"DERIVED","Total Bili 1.5 x ULN and Transaminase 1.5 x ULN","HYLAW",6,"HYLAW",0,0,null,null,null,null,null,null,"","Normal to Normal",1,"","",null],["CDISCPILOT01","1015","01-701-1015","Placebo",0,"Placebo",0,"2014-01-02","2014-07-02",63,"<65",1,"WHITE",1,"F","Y","","Y","         Week 16",16,126,"2014-05-07","WEEK 16",10,"","Alanine Aminotransferase (U/L)","ALT",1,"CHEM",17,27,6,34,2.83333333333,0.5,4.5,0.794117647059,"","",null,"R2A1HI > 1.5","N",0],["CDISCPILOT01","1015","01-701-1015","Placebo",0,"Placebo",0,"2014-01-02","2014-07-02",63,"<65",1,"WHITE",1,"F","Y","","Y","         Week 16",16,126,"2014-05-07","WEEK 16",10,"","Aspartate Aminotransferase (U/L)","AST",2,"CHEM",23,40,9,34,2.55555555556,0.676470588235,4.44444444444,1.17647058824,"","",null,"R2A1HI > 1.5","N",0],["CDISCPILOT01","1015","01-701-1015","Placebo",0,"Placebo",0,"2014-01-02","2014-07-02",63,"<65",1,"WHITE",1,"F","Y","","Y","         Week 16",16,126,"2014-05-07","WEEK 16",10,"","Bilirubin (umol/L)","BILI",3,"CHEM",6.84,10.26,3,21,2.28,0.325714285714,3.42,0.488571428571,"","",null,"R2A1HI > 1.5","N",0],["CDISCPILOT01","1015","01-701-1015","Placebo",0,"Placebo",0,"2014-01-02","2014-07-02",63,"<65",1,"WHITE",1,"F","Y","","Y","         Week 16",16,null,null,"",null,"DERIVED","Bilirubin 1.5 x ULN","BILIHY",4,"HYLAW",0,0,null,null,null,null,null,null,"","Normal to Normal",1,"","",null],["CDISCPILOT01","1015","01-701-1015","Placebo",0,"Placebo",0,"2014-01-02","2014-07-02",63,"<65",1,"WHITE",1,"F","Y","","Y","         Week 16",16,null,null,"",null,"DERIVED","Transaminase 1.5 x ULN","TRANSHY",5,"HYLAW",0,0,null,null,null,null,null,null,"","Normal to Normal",1,"","",null],["CDISCPILOT01","1015","01-701-1015","Placebo",0,"Placebo",0,"2014-01-02","2014-07-02",63,"<65",1,"WHITE",1,"F","Y","","Y","         Week 16",16,null,null,"",null,"DERIVED","Total Bili 1.5 x ULN and Transaminase 1.5 x ULN","HYLAW",6,"HYLAW",0,0,null,null,null,null,null,null,"","Normal to Normal",1,"","",null],["CDISCPILOT01","1015","01-701-1015","Placebo",0,"Placebo",0,"2014-01-02","2014-07-02",63,"<65",1,"WHITE",1,"F","Y","","Y","         Week 20",20,140,"2014-05-21","WEEK 20",11,"","Alanine Aminotransferase (U/L)","ALT",1,"CHEM",21,27,6,34,3.5,0.617647058824,4.5,0.794117647059,"","",null,"R2A1HI > 1.5","N",0],["CDISCPILOT01","1015","01-701-1015","Placebo",0,"Placebo",0,"2014-01-02","2014-07-02",63,"<65",1,"WHITE",1,"F","Y","","Y","         Week 20",20,140,"2014-05-21","WEEK 20",11,"","Aspartate Aminotransferase (U/L)","AST",2,"CHEM",19,40,9,34,2.11111111111,0.558823529412,4.44444444444,1.17647058824,"","",null,"R2A1HI > 1.5","N",0],["CDISCPILOT01","1015","01-701-1015","Placebo",0,"Placebo",0,"2014-01-02","2014-07-02",63,"<65",1,"WHITE",1,"F","Y","","Y","         Week 20",20,140,"2014-05-21","WEEK 20",11,"","Bilirubin (umol/L)","BILI",3,"CHEM",6.84,10.26,3,21,2.28,0.325714285714,3.42,0.488571428571,"","",null,"R2A1HI > 1.5","N",0],["CDISCPILOT01","1015","01-701-1015","Placebo",0,"Placebo",0,"2014-01-02","2014-07-02",63,"<65",1,"WHITE",1,"F","Y","","Y","         Week 20",20,null,null,"",null,"DERIVED","Bilirubin 1.5 x ULN","BILIHY",4,"HYLAW",0,0,null,null,null,null,null,null,"","Normal to Normal",1,"","",null],["CDISCPILOT01","1015","01-701-1015","Placebo",0,"Placebo",0,"2014-01-02","2014-07-02",63,"<65",1,"WHITE",1,"F","Y","","Y","         Week 20",20,null,null,"",null,"DERIVED","Transaminase 1.5 x ULN","TRANSHY",5,"HYLAW",0,0,null,null,null,null,null,null,"","Normal to Normal",1,"","",null],["CDISCPILOT01","1015","01-701-1015","Placebo",0,"Placebo",0,"2014-01-02","2014-07-02",63,"<65",1,"WHITE",1,"F","Y","","Y","         Week 20",20,null,null,"",null,"DERIVED","Total Bili 1.5 x ULN and Transaminase 1.5 x ULN","HYLAW",6,"HYLAW",0,0,null,null,null,null,null,null,"","Normal to Normal",1,"","",null],["CDISCPILOT01","1015","01-701-1015","Placebo",0,"Placebo",0,"2014-01-02","2014-07-02",63,"<65",1,"WHITE",1,"F","Y","","Y","         Week 24",24,168,"2014-06-18","WEEK 24",12,"","Alanine Aminotransferase (U/L)","ALT",1,"CHEM",23,27,6,34,3.83333333333,0.676470588235,4.5,0.794117647059,"","",null,"R2A1HI > 1.5","N",0],["CDISCPILOT01","1015","01-701-1015","Placebo",0,"Placebo",0,"2014-01-02","2014-07-02",63,"<65",1,"WHITE",1,"F","Y","","Y","         Week 24",24,168,"2014-06-18","WEEK 24",12,"","Aspartate Aminotransferase (U/L)","AST",2,"CHEM",23,40,9,34,2.55555555556,0.676470588235,4.44444444444,1.17647058824,"","",null,"R2A1HI > 1.5","N",0],["CDISCPILOT01","1015","01-701-1015","Placebo",0,"Placebo",0,"2014-01-02","2014-07-02",63,"<65",1,"WHITE",1,"F","Y","","Y","         Week 24",24,168,"2014-06-18","WEEK 24",12,"","Bilirubin (umol/L)","BILI",3,"CHEM",6.84,10.26,3,21,2.28,0.325714285714,3.42,0.488571428571,"","",null,"R2A1HI > 1.5","N",0],["CDISCPILOT01","1015","01-701-1015","Placebo",0,"Placebo",0,"2014-01-02","2014-07-02",63,"<65",1,"WHITE",1,"F","Y","","Y","         Week 24",24,null,null,"",null,"DERIVED","Bilirubin 1.5 x ULN","BILIHY",4,"HYLAW",0,0,null,null,null,null,null,null,"","Normal to Normal",1,"","",null],["CDISCPILOT01","1015","01-701-1015","Placebo",0,"Placebo",0,"2014-01-02","2014-07-02",63,"<65",1,"WHITE",1,"F","Y","","Y","         Week 24",24,null,null,"",null,"DERIVED","Transaminase 1.5 x ULN","TRANSHY",5,"HYLAW",0,0,null,null,null,null,null,null,"","Normal to Normal",1,"","",null],["CDISCPILOT01","1015","01-701-1015","Placebo",0,"Placebo",0,"2014-01-02","2014-07-02",63,"<65",1,"WHITE",1,"F","Y","","Y","         Week 24",24,null,null,"",null,"DERIVED","Total Bili 1.5 x ULN and Transaminase 1.5 x ULN","HYLAW",6,"HYLAW",0,0,null,null,null,null,null,null,"","Normal to Normal",1,"","",null],["CDISCPILOT01","1023","01-701-1023","Placebo",0,"Placebo",0,"2012-08-05","2012-09-01",64,"<65",1,"WHITE",1,"M","N","Y","Y","        Baseline",0,-14,"2012-07-22","SCREENING 1",1,"","Alanine Aminotransferase (U/L)","ALT",1,"CHEM",23,23,6,43,3.83333333333,0.53488372093,3.83333333333,0.53488372093,"Y","",null,"R2A1HI > 1.5","N",0],["CDISCPILOT01","1023","01-701-1023","Placebo",0,"Placebo",0,"2012-08-05","2012-09-01",64,"<65",1,"WHITE",1,"M","N","Y","Y","        Baseline",0,-14,"2012-07-22","SCREENING 1",1,"","Aspartate Aminotransferase (U/L)","AST",2,"CHEM",21,21,11,36,1.90909090909,0.583333333333,1.90909090909,0.583333333333,"Y","",null,"R2A1HI > 1.5","N",0],["CDISCPILOT01","1023","01-701-1023","Placebo",0,"Placebo",0,"2012-08-05","2012-09-01",64,"<65",1,"WHITE",1,"M","N","Y","Y","        Baseline",0,-14,"2012-07-22","SCREENING 1",1,"","Bilirubin (umol/L)","BILI",3,"CHEM",11.97,11.97,3,21,3.99,0.57,3.99,0.57,"Y","",null,"R2A1HI > 1.5","N",0],["CDISCPILOT01","1023","01-701-1023","Placebo",0,"Placebo",0,"2012-08-05","2012-09-01",64,"<65",1,"WHITE",1,"M","N","Y","Y","        Baseline",0,null,null,"",null,"DERIVED","Bilirubin 1.5 x ULN","BILIHY",4,"HYLAW",0,0,null,null,null,null,null,null,"Y","Normal to Normal",1,"","",null],["CDISCPILOT01","1023","01-701-1023","Placebo",0,"Placebo",0,"2012-08-05","2012-09-01",64,"<65",1,"WHITE",1,"M","N","Y","Y","        Baseline",0,null,null,"",null,"DERIVED","Transaminase 1.5 x ULN","TRANSHY",5,"HYLAW",0,0,null,null,null,null,null,null,"Y","Normal to Normal",1,"","",null],["CDISCPILOT01","1023","01-701-1023","Placebo",0,"Placebo",0,"2012-08-05","2012-09-01",64,"<65",1,"WHITE",1,"M","N","Y","Y","        Baseline",0,null,null,"",null,"DERIVED","Total Bili 1.5 x ULN and Transaminase 1.5 x ULN","HYLAW",6,"HYLAW",0,0,null,null,null,null,null,null,"Y","Normal to Normal",1,"","",null],["CDISCPILOT01","1023","01-701-1023","Placebo",0,"Placebo",0,"2012-08-05","2012-09-01",64,"<65",1,"WHITE",1,"M","N","Y","Y","          Week 2",2,23,"2012-08-27","WEEK 2",4,"","Alanine Aminotransferase (U/L)","ALT",1,"CHEM",30,23,6,43,5,0.697674418605,3.83333333333,0.53488372093,"","",null,"R2A1HI > 1.5","N",0],["CDISCPILOT01","1023","01-701-1023","Placebo",0,"Placebo",0,"2012-08-05","2012-09-01",64,"<65",1,"WHITE",1,"M","N","Y","Y","          Week 2",2,23,"2012-08-27","WEEK 2",4,"","Aspartate Aminotransferase (U/L)","AST",2,"CHEM",25,21,11,36,2.27272727273,0.694444444444,1.90909090909,0.583333333333,"","",null,"R2A1HI > 1.5","N",0],["CDISCPILOT01","1023","01-701-1023","Placebo",0,"Placebo",0,"2012-08-05","2012-09-01",64,"<65",1,"WHITE",1,"M","N","Y","Y","          Week 2",2,23,"2012-08-27","WEEK 2",4,"","Bilirubin (umol/L)","BILI",3,"CHEM",6.84,11.97,3,21,2.28,0.325714285714,3.99,0.57,"","",null,"R2A1HI > 1.5","N",0],["CDISCPILOT01","1023","01-701-1023","Placebo",0,"Placebo",0,"2012-08-05","2012-09-01",64,"<65",1,"WHITE",1,"M","N","Y","Y","          Week 2",2,null,null,"",null,"DERIVED","Bilirubin 1.5 x ULN","BILIHY",4,"HYLAW",0,0,null,null,null,null,null,null,"","Normal to Normal",1,"","",null],["CDISCPILOT01","1023","01-701-1023","Placebo",0,"Placebo",0,"2012-08-05","2012-09-01",64,"<65",1,"WHITE",1,"M","N","Y","Y","          Week 2",2,null,null,"",null,"DERIVED","Transaminase 1.5 x ULN","TRANSHY",5,"HYLAW",0,0,null,null,null,null,null,null,"","Normal to Normal",1,"","",null],["CDISCPILOT01","1023","01-701-1023","Placebo",0,"Placebo",0,"2012-08-05","2012-09-01",64,"<65",1,"WHITE",1,"M","N","Y","Y","          Week 2",2,null,null,"",null,"DERIVED","Total Bili 1.5 x ULN and Transaminase 1.5 x ULN","HYLAW",6,"HYLAW",0,0,null,null,null,null,null,null,"","Normal to Normal",1,"","",null],["CDISCPILOT01","1023","01-701-1023","Placebo",0,"Placebo",0,"2012-08-05","2012-09-01",64,"<65",1,"WHITE",1,"M","N","Y","Y","          Week 4",4,29,"2012-09-02","WEEK 4",5,"","Alanine Aminotransferase (U/L)","ALT",1,"CHEM",38,23,6,43,6.33333333333,0.883720930233,3.83333333333,0.53488372093,"","",null,"R2A1HI > 1.5","N",0],["CDISCPILOT01","1023","01-701-1023","Placebo",0,"Placebo",0,"2012-08-05","2012-09-01",64,"<65",1,"WHITE",1,"M","N","Y","Y","          Week 4",4,29,"2012-09-02","WEEK 4",5,"","Aspartate Aminotransferase (U/L)","AST",2,"CHEM",30,21,11,36,2.72727272727,0.833333333333,1.90909090909,0.583333333333,"","",null,"R2A1HI > 1.5","N",0],["CDISCPILOT01","1023","01-701-1023","Placebo",0,"Placebo",0,"2012-08-05","2012-09-01",64,"<65",1,"WHITE",1,"M","N","Y","Y","          Week 4",4,29,"2012-09-02","WEEK 4",5,"","Bilirubin (umol/L)","BILI",3,"CHEM",8.55,11.97,3,21,2.85,0.407142857143,3.99,0.57,"","",null,"R2A1HI > 1.5","N",0],["CDISCPILOT01","1023","01-701-1023","Placebo",0,"Placebo",0,"2012-08-05","2012-09-01",64,"<65",1,"WHITE",1,"M","N","Y","Y","          Week 4",4,null,null,"",null,"DERIVED","Bilirubin 1.5 x ULN","BILIHY",4,"HYLAW",0,0,null,null,null,null,null,null,"","Normal to Normal",1,"","",null],["CDISCPILOT01","1023","01-701-1023","Placebo",0,"Placebo",0,"2012-08-05","2012-09-01",64,"<65",1,"WHITE",1,"M","N","Y","Y","          Week 4",4,null,null,"",null,"DERIVED","Transaminase 1.5 x ULN","TRANSHY",5,"HYLAW",0,0,null,null,null,null,null,null,"","Normal to Normal",1,"","",null],["CDISCPILOT01","1023","01-701-1023","Placebo",0,"Placebo",0,"2012-08-05","2012-09-01",64,"<65",1,"WHITE",1,"M","N","Y","Y","          Week 4",4,null,null,"",null,"DERIVED","Total Bili 1.5 x ULN and Transaminase 1.5 x ULN","HYLAW",6,"HYLAW",0,0,null,null,null,null,null,null,"","Normal to Normal",1,"","",null],["CDISCPILOT01","1028","01-701-1028","Xanomeline High Dose",81,"Xanomeline High Dose",81,"2013-07-19","2014-01-14",71,"65-80",2,"WHITE",1,"M","Y","","Y","        Baseline",0,-8,"2013-07-11","SCREENING 1",1,"","Alanine Aminotransferase (U/L)","ALT",1,"CHEM",26,26,6,35,4.33333333333,0.742857142857,4.33333333333,0.742857142857,"Y","",null,"R2A1HI > 1.5","N",0],["CDISCPILOT01","1028","01-701-1028","Xanomeline High Dose",81,"Xanomeline High Dose",81,"2013-07-19","2014-01-14",71,"65-80",2,"WHITE",1,"M","Y","","Y","        Baseline",0,-8,"2013-07-11","SCREENING 1",1,"","Aspartate Aminotransferase (U/L)","AST",2,"CHEM",24,24,11,36,2.18181818182,0.666666666667,2.18181818182,0.666666666667,"Y","",null,"R2A1HI > 1.5","N",0],["CDISCPILOT01","1028","01-701-1028","Xanomeline High Dose",81,"Xanomeline High Dose",81,"2013-07-19","2014-01-14",71,"65-80",2,"WHITE",1,"M","Y","","Y","        Baseline",0,-8,"2013-07-11","SCREENING 1",1,"","Bilirubin (umol/L)","BILI",3,"CHEM",18.81,18.81,3,21,6.27,0.895714285714,6.27,0.895714285714,"Y","",null,"R2A1HI > 1.5","N",0],["CDISCPILOT01","1028","01-701-1028","Xanomeline High Dose",81,"Xanomeline High Dose",81,"2013-07-19","2014-01-14",71,"65-80",2,"WHITE",1,"M","Y","","Y","        Baseline",0,null,null,"",null,"DERIVED","Bilirubin 1.5 x ULN","BILIHY",4,"HYLAW",0,0,null,null,null,null,null,null,"Y","Normal to Normal",1,"","",null],["CDISCPILOT01","1028","01-701-1028","Xanomeline High Dose",81,"Xanomeline High Dose",81,"2013-07-19","2014-01-14",71,"65-80",2,"WHITE",1,"M","Y","","Y","        Baseline",0,null,null,"",null,"DERIVED","Transaminase 1.5 x ULN","TRANSHY",5,"HYLAW",0,0,null,null,null,null,null,null,"Y","Normal to Normal",1,"","",null],["CDISCPILOT01","1028","01-701-1028","Xanomeline High Dose",81,"Xanomeline High Dose",81,"2013-07-19","2014-01-14",71,"65-80",2,"WHITE",1,"M","Y","","Y","        Baseline",0,null,null,"",null,"DERIVED","Total Bili 1.5 x ULN and Transaminase 1.5 x ULN","HYLAW",6,"HYLAW",0,0,null,null,null,null,null,null,"Y","Normal to Normal",1,"","",null],["CDISCPILOT01","1028","01-701-1028","Xanomeline High Dose",81,"Xanomeline High Dose",81,"2013-07-19","2014-01-14",71,"65-80",2,"WHITE",1,"M","Y","","Y","          Week 2",2,14,"2013-08-01","WEEK 2",4,"","Alanine Aminotransferase (U/L)","ALT",1,"CHEM",30,26,6,35,5,0.857142857143,4.33333333333,0.742857142857,"","",null,"R2A1HI > 1.5","N",0],["CDISCPILOT01","1028","01-701-1028","Xanomeline High Dose",81,"Xanomeline High Dose",81,"2013-07-19","2014-01-14",71,"65-80",2,"WHITE",1,"M","Y","","Y","          Week 2",2,14,"2013-08-01","WEEK 2",4,"","Aspartate Aminotransferase (U/L)","AST",2,"CHEM",23,24,11,36,2.09090909091,0.638888888889,2.18181818182,0.666666666667,"","",null,"R2A1HI > 1.5","N",0],["CDISCPILOT01","1028","01-701-1028","Xanomeline High Dose",81,"Xanomeline High Dose",81,"2013-07-19","2014-01-14",71,"65-80",2,"WHITE",1,"M","Y","","Y","          Week 2",2,14,"2013-08-01","WEEK 2",4,"","Bilirubin (umol/L)","BILI",3,"CHEM",11.97,18.81,3,21,3.99,0.57,6.27,0.895714285714,"","",null,"R2A1HI > 1.5","N",0],["CDISCPILOT01","1028","01-701-1028","Xanomeline High Dose",81,"Xanomeline High Dose",81,"2013-07-19","2014-01-14",71,"65-80",2,"WHITE",1,"M","Y","","Y","          Week 2",2,null,null,"",null,"DERIVED","Bilirubin 1.5 x ULN","BILIHY",4,"HYLAW",0,0,null,null,null,null,null,null,"","Normal to Normal",1,"","",null],["CDISCPILOT01","1028","01-701-1028","Xanomeline High Dose",81,"Xanomeline High Dose",81,"2013-07-19","2014-01-14",71,"65-80",2,"WHITE",1,"M","Y","","Y","          Week 2",2,null,null,"",null,"DERIVED","Transaminase 1.5 x ULN","TRANSHY",5,"HYLAW",0,0,null,null,null,null,null,null,"","Normal to Normal",1,"","",null],["CDISCPILOT01","1028","01-701-1028","Xanomeline High Dose",81,"Xanomeline High Dose",81,"2013-07-19","2014-01-14",71,"65-80",2,"WHITE",1,"M","Y","","Y","          Week 2",2,null,null,"",null,"DERIVED","Total Bili 1.5 x ULN and Transaminase 1.5 x ULN","HYLAW",6,"HYLAW",0,0,null,null,null,null,null,null,"","Normal to Normal",1,"","",null],["CDISCPILOT01","1028","01-701-1028","Xanomeline High Dose",81,"Xanomeline High Dose",81,"2013-07-19","2014-01-14",71,"65-80",2,"WHITE",1,"M","Y","","Y","          Week 4",4,27,"2013-08-14","WEEK 4",5,"","Alanine Aminotransferase (U/L)","ALT",1,"CHEM",29,26,6,35,4.83333333333,0.828571428571,4.33333333333,0.742857142857,"","",null,"R2A1HI > 1.5","N",0],["CDISCPILOT01","1028","01-701-1028","Xanomeline High Dose",81,"Xanomeline High Dose",81,"2013-07-19","2014-01-14",71,"65-80",2,"WHITE",1,"M","Y","","Y","          Week 4",4,27,"2013-08-14","WEEK 4",5,"","Aspartate Aminotransferase (U/L)","AST",2,"CHEM",24,24,11,36,2.18181818182,0.666666666667,2.18181818182,0.666666666667,"","",null,"R2A1HI > 1.5","N",0],["CDISCPILOT01","1028","01-701-1028","Xanomeline High Dose",81,"Xanomeline High Dose",81,"2013-07-19","2014-01-14",71,"65-80",2,"WHITE",1,"M","Y","","Y","          Week 4",4,27,"2013-08-14","WEEK 4",5,"","Bilirubin (umol/L)","BILI",3,"CHEM",13.68,18.81,3,21,4.56,0.651428571429,6.27,0.895714285714,"","",null,"R2A1HI > 1.5","N",0],["CDISCPILOT01","1028","01-701-1028","Xanomeline High Dose",81,"Xanomeline High Dose",81,"2013-07-19","2014-01-14",71,"65-80",2,"WHITE",1,"M","Y","","Y","          Week 4",4,null,null,"",null,"DERIVED","Bilirubin 1.5 x ULN","BILIHY",4,"HYLAW",0,0,null,null,null,null,null,null,"","Normal to Normal",1,"","",null],["CDISCPILOT01","1028","01-701-1028","Xanomeline High Dose",81,"Xanomeline High Dose",81,"2013-07-19","2014-01-14",71,"65-80",2,"WHITE",1,"M","Y","","Y","          Week 4",4,null,null,"",null,"DERIVED","Transaminase 1.5 x ULN","TRANSHY",5,"HYLAW",0,0,null,null,null,null,null,null,"","Normal to Normal",1,"","",null],["CDISCPILOT01","1028","01-701-1028","Xanomeline High Dose",81,"Xanomeline High Dose",81,"2013-07-19","2014-01-14",71,"65-80",2,"WHITE",1,"M","Y","","Y","          Week 4",4,null,null,"",null,"DERIVED","Total Bili 1.5 x ULN and Transaminase 1.5 x ULN","HYLAW",6,"HYLAW",0,0,null,null,null,null,null,null,"","Normal to Normal",1,"","",null],["CDISCPILOT01","1028","01-701-1028","Xanomeline High Dose",81,"Xanomeline High Dose",81,"2013-07-19","2014-01-14",71,"65-80",2,"WHITE",1,"M","Y","","Y","          Week 6",6,42,"2013-08-29","WEEK 6",7,"","Alanine Aminotransferase (U/L)","ALT",1,"CHEM",32,26,6,35,5.33333333333,0.914285714286,4.33333333333,0.742857142857,"","",null,"R2A1HI > 1.5","N",0],["CDISCPILOT01","1028","01-701-1028","Xanomeline High Dose",81,"Xanomeline High Dose",81,"2013-07-19","2014-01-14",71,"65-80",2,"WHITE",1,"M","Y","","Y","          Week 6",6,42,"2013-08-29","WEEK 6",7,"","Aspartate Aminotransferase (U/L)","AST",2,"CHEM",26,24,11,36,2.36363636364,0.722222222222,2.18181818182,0.666666666667,"","",null,"R2A1HI > 1.5","N",0],["CDISCPILOT01","1028","01-701-1028","Xanomeline High Dose",81,"Xanomeline High Dose",81,"2013-07-19","2014-01-14",71,"65-80",2,"WHITE",1,"M","Y","","Y","          Week 6",6,42,"2013-08-29","WEEK 6",7,"","Bilirubin (umol/L)","BILI",3,"CHEM",11.97,18.81,3,21,3.99,0.57,6.27,0.895714285714,"","",null,"R2A1HI > 1.5","N",0],["CDISCPILOT01","1028","01-701-1028","Xanomeline High Dose",81,"Xanomeline High Dose",81,"2013-07-19","2014-01-14",71,"65-80",2,"WHITE",1,"M","Y","","Y","          Week 6",6,null,null,"",null,"DERIVED","Bilirubin 1.5 x ULN","BILIHY",4,"HYLAW",0,0,null,null,null,null,null,null,"","Normal to Normal",1,"","",null],["CDISCPILOT01","1028","01-701-1028","Xanomeline High Dose",81,"Xanomeline High Dose",81,"2013-07-19","2014-01-14",71,"65-80",2,"WHITE",1,"M","Y","","Y","          Week 6",6,null,null,"",null,"DERIVED","Transaminase 1.5 x ULN","TRANSHY",5,"HYLAW",0,0,null,null,null,null,null,null,"","Normal to Normal",1,"","",null],["CDISCPILOT01","1028","01-701-1028","Xanomeline High Dose",81,"Xanomeline High Dose",81,"2013-07-19","2014-01-14",71,"65-80",2,"WHITE",1,"M","Y","","Y","          Week 6",6,null,null,"",null,"DERIVED","Total Bili 1.5 x ULN and Transaminase 1.5 x ULN","HYLAW",6,"HYLAW",0,0,null,null,null,null,null,null,"","Normal to Normal",1,"","",null],["CDISCPILOT01","1028","01-701-1028","Xanomeline High Dose",81,"Xanomeline High Dose",81,"2013-07-19","2014-01-14",71,"65-80",2,"WHITE",1,"M","Y","","Y","          Week 8",8,54,"2013-09-10","WEEK 8",8,"","Alanine Aminotransferase (U/L)","ALT",1,"CHEM",33,26,6,35,5.5,0.942857142857,4.33333333333,0.742857142857,"","",null,"R2A1HI > 1.5","N",0],["CDISCPILOT01","1028","01-701-1028","Xanomeline High Dose",81,"Xanomeline High Dose",81,"2013-07-19","2014-01-14",71,"65-80",2,"WHITE",1,"M","Y","","Y","          Week 8",8,54,"2013-09-10","WEEK 8",8,"","Aspartate Aminotransferase (U/L)","AST",2,"CHEM",28,24,11,36,2.54545454545,0.777777777778,2.18181818182,0.666666666667,"","",null,"R2A1HI > 1.5","N",0],["CDISCPILOT01","1028","01-701-1028","Xanomeline High Dose",81,"Xanomeline High Dose",81,"2013-07-19","2014-01-14",71,"65-80",2,"WHITE",1,"M","Y","","Y","          Week 8",8,54,"2013-09-10","WEEK 8",8,"","Bilirubin (umol/L)","BILI",3,"CHEM",13.68,18.81,3,21,4.56,0.651428571429,6.27,0.895714285714,"","",null,"R2A1HI > 1.5","N",0],["CDISCPILOT01","1028","01-701-1028","Xanomeline High Dose",81,"Xanomeline High Dose",81,"2013-07-19","2014-01-14",71,"65-80",2,"WHITE",1,"M","Y","","Y","          Week 8",8,null,null,"",null,"DERIVED","Bilirubin 1.5 x ULN","BILIHY",4,"HYLAW",0,0,null,null,null,null,null,null,"","Normal to Normal",1,"","",null],["CDISCPILOT01","1028","01-701-1028","Xanomeline High Dose",81,"Xanomeline High Dose",81,"2013-07-19","2014-01-14",71,"65-80",2,"WHITE",1,"M","Y","","Y","          Week 8",8,null,null,"",null,"DERIVED","Transaminase 1.5 x ULN","TRANSHY",5,"HYLAW",0,0,null,null,null,null,null,null,"","Normal to Normal",1,"","",null],["CDISCPILOT01","1028","01-701-1028","Xanomeline High Dose",81,"Xanomeline High Dose",81,"2013-07-19","2014-01-14",71,"65-80",2,"WHITE",1,"M","Y","","Y","          Week 8",8,null,null,"",null,"DERIVED","Total Bili 1.5 x ULN and Transaminase 1.5 x ULN","HYLAW",6,"HYLAW",0,0,null,null,null,null,null,null,"","Normal to Normal",1,"","",null],["CDISCPILOT01","1028","01-701-1028","Xanomeline High Dose",81,"Xanomeline High Dose",81,"2013-07-19","2014-01-14",71,"65-80",2,"WHITE",1,"M","Y","","Y","         Week 12",12,83,"2013-10-09","WEEK 12",9,"","Alanine Aminotransferase (U/L)","ALT",1,"CHEM",29,26,6,35,4.83333333333,0.828571428571,4.33333333333,0.742857142857,"","",null,"R2A1HI > 1.5","N",0],["CDISCPILOT01","1028","01-701-1028","Xanomeline High Dose",81,"Xanomeline High Dose",81,"2013-07-19","2014-01-14",71,"65-80",2,"WHITE",1,"M","Y","","Y","         Week 12",12,83,"2013-10-09","WEEK 12",9,"","Aspartate Aminotransferase (U/L)","AST",2,"CHEM",28,24,11,36,2.54545454545,0.777777777778,2.18181818182,0.666666666667,"","",null,"R2A1HI > 1.5","N",0],["CDISCPILOT01","1028","01-701-1028","Xanomeline High Dose",81,"Xanomeline High Dose",81,"2013-07-19","2014-01-14",71,"65-80",2,"WHITE",1,"M","Y","","Y","         Week 12",12,83,"2013-10-09","WEEK 12",9,"","Bilirubin (umol/L)","BILI",3,"CHEM",13.68,18.81,3,21,4.56,0.651428571429,6.27,0.895714285714,"","",null,"R2A1HI > 1.5","N",0],["CDISCPILOT01","1028","01-701-1028","Xanomeline High Dose",81,"Xanomeline High Dose",81,"2013-07-19","2014-01-14",71,"65-80",2,"WHITE",1,"M","Y","","Y","         Week 12",12,null,null,"",null,"DERIVED","Bilirubin 1.5 x ULN","BILIHY",4,"HYLAW",0,0,null,null,null,null,null,null,"","Normal to Normal",1,"","",null],["CDISCPILOT01","1028","01-701-1028","Xanomeline High Dose",81,"Xanomeline High Dose",81,"2013-07-19","2014-01-14",71,"65-80",2,"WHITE",1,"M","Y","","Y","         Week 12",12,null,null,"",null,"DERIVED","Transaminase 1.5 x ULN","TRANSHY",5,"HYLAW",0,0,null,null,null,null,null,null,"","Normal to Normal",1,"","",null],["CDISCPILOT01","1028","01-701-1028","Xanomeline High Dose",81,"Xanomeline High Dose",81,"2013-07-19","2014-01-14",71,"65-80",2,"WHITE",1,"M","Y","","Y","         Week 12",12,null,null,"",null,"DERIVED","Total Bili 1.5 x ULN and Transaminase 1.5 x ULN","HYLAW",6,"HYLAW",0,0,null,null,null,null,null,null,"","Normal to Normal",1,"","",null],["CDISCPILOT01","1028","01-701-1028","Xanomeline High Dose",81,"Xanomeline High Dose",81,"2013-07-19","2014-01-14",71,"65-80",2,"WHITE",1,"M","Y","","Y","         Week 16",16,111,"2013-11-06","WEEK 16",10,"","Alanine Aminotransferase (U/L)","ALT",1,"CHEM",24,26,6,35,4,0.685714285714,4.33333333333,0.742857142857,"","",null,"R2A1HI > 1.5","N",0],["CDISCPILOT01","1028","01-701-1028","Xanomeline High Dose",81,"Xanomeline High Dose",81,"2013-07-19","2014-01-14",71,"65-80",2,"WHITE",1,"M","Y","","Y","         Week 16",16,111,"2013-11-06","WEEK 16",10,"","Aspartate Aminotransferase (U/L)","AST",2,"CHEM",18,24,11,36,1.63636363636,0.5,2.18181818182,0.666666666667,"","",null,"R2A1HI > 1.5","N",0],["CDISCPILOT01","1028","01-701-1028","Xanomeline High Dose",81,"Xanomeline High Dose",81,"2013-07-19","2014-01-14",71,"65-80",2,"WHITE",1,"M","Y","","Y","         Week 16",16,111,"2013-11-06","WEEK 16",10,"","Bilirubin (umol/L)","BILI",3,"CHEM",11.97,18.81,3,21,3.99,0.57,6.27,0.895714285714,"","",null,"R2A1HI > 1.5","N",0],["CDISCPILOT01","1028","01-701-1028","Xanomeline High Dose",81,"Xanomeline High Dose",81,"2013-07-19","2014-01-14",71,"65-80",2,"WHITE",1,"M","Y","","Y","         Week 16",16,null,null,"",null,"DERIVED","Bilirubin 1.5 x ULN","BILIHY",4,"HYLAW",0,0,null,null,null,null,null,null,"","Normal to Normal",1,"","",null],["CDISCPILOT01","1028","01-701-1028","Xanomeline High Dose",81,"Xanomeline High Dose",81,"2013-07-19","2014-01-14",71,"65-80",2,"WHITE",1,"M","Y","","Y","         Week 16",16,null,null,"",null,"DERIVED","Transaminase 1.5 x ULN","TRANSHY",5,"HYLAW",0,0,null,null,null,null,null,null,"","Normal to Normal",1,"","",null],["CDISCPILOT01","1028","01-701-1028","Xanomeline High Dose",81,"Xanomeline High Dose",81,"2013-07-19","2014-01-14",71,"65-80",2,"WHITE",1,"M","Y","","Y","         Week 16",16,null,null,"",null,"DERIVED","Total Bili 1.5 x ULN and Transaminase 1.5 x ULN","HYLAW",6,"HYLAW",0,0,null,null,null,null,null,null,"","Normal to Normal",1,"","",null],["CDISCPILOT01","1028","01-701-1028","Xanomeline High Dose",81,"Xanomeline High Dose",81,"2013-07-19","2014-01-14",71,"65-80",2,"WHITE",1,"M","Y","","Y","         Week 20",20,139,"2013-12-04","WEEK 20",11,"","Alanine Aminotransferase (U/L)","ALT",1,"CHEM",22,26,6,35,3.66666666667,0.628571428571,4.33333333333,0.742857142857,"","",null,"R2A1HI > 1.5","N",0],["CDISCPILOT01","1028","01-701-1028","Xanomeline High Dose",81,"Xanomeline High Dose",81,"2013-07-19","2014-01-14",71,"65-80",2,"WHITE",1,"M","Y","","Y","         Week 20",20,139,"2013-12-04","WEEK 20",11,"","Aspartate Aminotransferase (U/L)","AST",2,"CHEM",21,24,11,36,1.90909090909,0.583333333333,2.18181818182,0.666666666667,"","",null,"R2A1HI > 1.5","N",0],["CDISCPILOT01","1028","01-701-1028","Xanomeline High Dose",81,"Xanomeline High Dose",81,"2013-07-19","2014-01-14",71,"65-80",2,"WHITE",1,"M","Y","","Y","         Week 20",20,139,"2013-12-04","WEEK 20",11,"","Bilirubin (umol/L)","BILI",3,"CHEM",13.68,18.81,3,21,4.56,0.651428571429,6.27,0.895714285714,"","",null,"R2A1HI > 1.5","N",0],["CDISCPILOT01","1028","01-701-1028","Xanomeline High Dose",81,"Xanomeline High Dose",81,"2013-07-19","2014-01-14",71,"65-80",2,"WHITE",1,"M","Y","","Y","         Week 20",20,null,null,"",null,"DERIVED","Bilirubin 1.5 x ULN","BILIHY",4,"HYLAW",0,0,null,null,null,null,null,null,"","Normal to Normal",1,"","",null],["CDISCPILOT01","1028","01-701-1028","Xanomeline High Dose",81,"Xanomeline High Dose",81,"2013-07-19","2014-01-14",71,"65-80",2,"WHITE",1,"M","Y","","Y","         Week 20",20,null,null,"",null,"DERIVED","Transaminase 1.5 x ULN","TRANSHY",5,"HYLAW",0,0,null,null,null,null,null,null,"","Normal to Normal",1,"","",null],["CDISCPILOT01","1028","01-701-1028","Xanomeline High Dose",81,"Xanomeline High Dose",81,"2013-07-19","2014-01-14",71,"65-80",2,"WHITE",1,"M","Y","","Y","         Week 20",20,null,null,"",null,"DERIVED","Total Bili 1.5 x ULN and Transaminase 1.5 x ULN","HYLAW",6,"HYLAW",0,0,null,null,null,null,null,null,"","Normal to Normal",1,"","",null],["CDISCPILOT01","1028","01-701-1028","Xanomeline High Dose",81,"Xanomeline High Dose",81,"2013-07-19","2014-01-14",71,"65-80",2,"WHITE",1,"M","Y","","Y","         Week 24",24,172,"2014-01-06","WEEK 24",12,"","Alanine Aminotransferase (U/L)","ALT",1,"CHEM",24,26,6,35,4,0.685714285714,4.33333333333,0.742857142857,"","",null,"R2A1HI > 1.5","N",0],["CDISCPILOT01","1028","01-701-1028","Xanomeline High Dose",81,"Xanomeline High Dose",81,"2013-07-19","2014-01-14",71,"65-80",2,"WHITE",1,"M","Y","","Y","         Week 24",24,172,"2014-01-06","WEEK 24",12,"","Aspartate Aminotransferase (U/L)","AST",2,"CHEM",23,24,11,36,2.09090909091,0.638888888889,2.18181818182,0.666666666667,"","",null,"R2A1HI > 1.5","N",0],["CDISCPILOT01","1028","01-701-1028","Xanomeline High Dose",81,"Xanomeline High Dose",81,"2013-07-19","2014-01-14",71,"65-80",2,"WHITE",1,"M","Y","","Y","         Week 24",24,172,"2014-01-06","WEEK 24",12,"","Bilirubin (umol/L)","BILI",3,"CHEM",15.39,18.81,3,21,5.13,0.732857142857,6.27,0.895714285714,"","",null,"R2A1HI > 1.5","N",0],["CDISCPILOT01","1028","01-701-1028","Xanomeline High Dose",81,"Xanomeline High Dose",81,"2013-07-19","2014-01-14",71,"65-80",2,"WHITE",1,"M","Y","","Y","         Week 24",24,null,null,"",null,"DERIVED","Bilirubin 1.5 x ULN","BILIHY",4,"HYLAW",0,0,null,null,null,null,null,null,"","Normal to Normal",1,"","",null],["CDISCPILOT01","1028","01-701-1028","Xanomeline High Dose",81,"Xanomeline High Dose",81,"2013-07-19","2014-01-14",71,"65-80",2,"WHITE",1,"M","Y","","Y","         Week 24",24,null,null,"",null,"DERIVED","Transaminase 1.5 x ULN","TRANSHY",5,"HYLAW",0,0,null,null,null,null,null,null,"","Normal to Normal",1,"","",null],["CDISCPILOT01","1028","01-701-1028","Xanomeline High Dose",81,"Xanomeline High Dose",81,"2013-07-19","2014-01-14",71,"65-80",2,"WHITE",1,"M","Y","","Y","         Week 24",24,null,null,"",null,"DERIVED","Total Bili 1.5 x ULN and Transaminase 1.5 x ULN","HYLAW",6,"HYLAW",0,0,null,null,null,null,null,null,"","Normal to Normal",1,"","",null],["CDISCPILOT01","1033","01-701-1033","Xanomeline Low Dose",54,"Xanomeline Low Dose",54,"2014-03-18","2014-03-31",74,"65-80",2,"WHITE",1,"M","N","","Y","        Baseline",0,-8,"2014-03-10","SCREENING 1",1,"","Alanine Aminotransferase (U/L)","ALT",1,"CHEM",16,16,6,35,2.66666666667,0.457142857143,2.66666666667,0.457142857143,"Y","",null,"R2A1HI > 1.5","N",0],["CDISCPILOT01","1033","01-701-1033","Xanomeline Low Dose",54,"Xanomeline Low Dose",54,"2014-03-18","2014-03-31",74,"65-80",2,"WHITE",1,"M","N","","Y","        Baseline",0,-8,"2014-03-10","SCREENING 1",1,"","Aspartate Aminotransferase (U/L)","AST",2,"CHEM",20,20,11,36,1.81818181818,0.555555555556,1.81818181818,0.555555555556,"Y","",null,"R2A1HI > 1.5","N",0],["CDISCPILOT01","1033","01-701-1033","Xanomeline Low Dose",54,"Xanomeline Low Dose",54,"2014-03-18","2014-03-31",74,"65-80",2,"WHITE",1,"M","N","","Y","        Baseline",0,-8,"2014-03-10","SCREENING 1",1,"","Bilirubin (umol/L)","BILI",3,"CHEM",13.68,13.68,3,21,4.56,0.651428571429,4.56,0.651428571429,"Y","",null,"R2A1HI > 1.5","N",0],["CDISCPILOT01","1033","01-701-1033","Xanomeline Low Dose",54,"Xanomeline Low Dose",54,"2014-03-18","2014-03-31",74,"65-80",2,"WHITE",1,"M","N","","Y","        Baseline",0,null,null,"",null,"DERIVED","Bilirubin 1.5 x ULN","BILIHY",4,"HYLAW",0,0,null,null,null,null,null,null,"Y","Normal to Normal",1,"","",null],["CDISCPILOT01","1033","01-701-1033","Xanomeline Low Dose",54,"Xanomeline Low Dose",54,"2014-03-18","2014-03-31",74,"65-80",2,"WHITE",1,"M","N","","Y","        Baseline",0,null,null,"",null,"DERIVED","Transaminase 1.5 x ULN","TRANSHY",5,"HYLAW",0,0,null,null,null,null,null,null,"Y","Normal to Normal",1,"","",null],["CDISCPILOT01","1033","01-701-1033","Xanomeline Low Dose",54,"Xanomeline Low Dose",54,"2014-03-18","2014-03-31",74,"65-80",2,"WHITE",1,"M","N","","Y","        Baseline",0,null,null,"",null,"DERIVED","Total Bili 1.5 x ULN and Transaminase 1.5 x ULN","HYLAW",6,"HYLAW",0,0,null,null,null,null,null,null,"Y","Normal to Normal",1,"","",null],["CDISCPILOT01","1033","01-701-1033","Xanomeline Low Dose",54,"Xanomeline Low Dose",54,"2014-03-18","2014-03-31",74,"65-80",2,"WHITE",1,"M","N","","Y","          Week 2",2,15,"2014-04-01","WEEK 2",4,"","Alanine Aminotransferase (U/L)","ALT",1,"CHEM",35,16,6,35,5.83333333333,1,2.66666666667,0.457142857143,"","",null,"R2A1HI > 1.5","N",0],["CDISCPILOT01","1033","01-701-1033","Xanomeline Low Dose",54,"Xanomeline Low Dose",54,"2014-03-18","2014-03-31",74,"65-80",2,"WHITE",1,"M","N","","Y","          Week 2",2,15,"2014-04-01","WEEK 2",4,"","Aspartate Aminotransferase (U/L)","AST",2,"CHEM",26,20,11,36,2.36363636364,0.722222222222,1.81818181818,0.555555555556,"","",null,"R2A1HI > 1.5","N",0],["CDISCPILOT01","1033","01-701-1033","Xanomeline Low Dose",54,"Xanomeline Low Dose",54,"2014-03-18","2014-03-31",74,"65-80",2,"WHITE",1,"M","N","","Y","          Week 2",2,15,"2014-04-01","WEEK 2",4,"","Bilirubin (umol/L)","BILI",3,"CHEM",6.84,13.68,3,21,2.28,0.325714285714,4.56,0.651428571429,"","",null,"R2A1HI > 1.5","N",0],["CDISCPILOT01","1033","01-701-1033","Xanomeline Low Dose",54,"Xanomeline Low Dose",54,"2014-03-18","2014-03-31",74,"65-80",2,"WHITE",1,"M","N","","Y","          Week 2",2,null,null,"",null,"DERIVED","Bilirubin 1.5 x ULN","BILIHY",4,"HYLAW",0,0,null,null,null,null,null,null,"","Normal to Normal",1,"","",null],["CDISCPILOT01","1033","01-701-1033","Xanomeline Low Dose",54,"Xanomeline Low Dose",54,"2014-03-18","2014-03-31",74,"65-80",2,"WHITE",1,"M","N","","Y","          Week 2",2,null,null,"",null,"DERIVED","Transaminase 1.5 x ULN","TRANSHY",5,"HYLAW",0,0,null,null,null,null,null,null,"","Normal to Normal",1,"","",null],["CDISCPILOT01","1033","01-701-1033","Xanomeline Low Dose",54,"Xanomeline Low Dose",54,"2014-03-18","2014-03-31",74,"65-80",2,"WHITE",1,"M","N","","Y","          Week 2",2,null,null,"",null,"DERIVED","Total Bili 1.5 x ULN and Transaminase 1.5 x ULN","HYLAW",6,"HYLAW",0,0,null,null,null,null,null,null,"","Normal to Normal",1,"","",null],["CDISCPILOT01","1033","01-701-1033","Xanomeline Low Dose",54,"Xanomeline Low Dose",54,"2014-03-18","2014-03-31",74,"65-80",2,"WHITE",1,"M","N","","Y","          Week 4",4,28,"2014-04-14","WEEK 4",5,"","Alanine Aminotransferase (U/L)","ALT",1,"CHEM",14,16,6,35,2.33333333333,0.4,2.66666666667,0.457142857143,"","",null,"R2A1HI > 1.5","N",0],["CDISCPILOT01","1033","01-701-1033","Xanomeline Low Dose",54,"Xanomeline Low Dose",54,"2014-03-18","2014-03-31",74,"65-80",2,"WHITE",1,"M","N","","Y","          Week 4",4,28,"2014-04-14","WEEK 4",5,"","Aspartate Aminotransferase (U/L)","AST",2,"CHEM",20,20,11,36,1.81818181818,0.555555555556,1.81818181818,0.555555555556,"","",null,"R2A1HI > 1.5","N",0],["CDISCPILOT01","1033","01-701-1033","Xanomeline Low Dose",54,"Xanomeline Low Dose",54,"2014-03-18","2014-03-31",74,"65-80",2,"WHITE",1,"M","N","","Y","          Week 4",4,28,"2014-04-14","WEEK 4",5,"","Bilirubin (umol/L)","BILI",3,"CHEM",15.39,13.68,3,21,5.13,0.732857142857,4.56,0.651428571429,"","",null,"R2A1HI > 1.5","N",0],["CDISCPILOT01","1033","01-701-1033","Xanomeline Low Dose",54,"Xanomeline Low Dose",54,"2014-03-18","2014-03-31",74,"65-80",2,"WHITE",1,"M","N","","Y","          Week 4",4,null,null,"",null,"DERIVED","Bilirubin 1.5 x ULN","BILIHY",4,"HYLAW",0,0,null,null,null,null,null,null,"","Normal to Normal",1,"","",null],["CDISCPILOT01","1033","01-701-1033","Xanomeline Low Dose",54,"Xanomeline Low Dose",54,"2014-03-18","2014-03-31",74,"65-80",2,"WHITE",1,"M","N","","Y","          Week 4",4,null,null,"",null,"DERIVED","Transaminase 1.5 x ULN","TRANSHY",5,"HYLAW",0,0,null,null,null,null,null,null,"","Normal to Normal",1,"","",null],["CDISCPILOT01","1033","01-701-1033","Xanomeline Low Dose",54,"Xanomeline Low Dose",54,"2014-03-18","2014-03-31",74,"65-80",2,"WHITE",1,"M","N","","Y","          Week 4",4,null,null,"",null,"DERIVED","Total Bili 1.5 x ULN and Transaminase 1.5 x ULN","HYLAW",6,"HYLAW",0,0,null,null,null,null,null,null,"","Normal to Normal",1,"","",null],["CDISCPILOT01","1034","01-701-1034","Xanomeline High Dose",81,"Xanomeline High Dose",81,"2014-07-01","2014-12-30",77,"65-80",2,"WHITE",1,"F","Y","","Y","        Baseline",0,-7,"2014-06-24","SCREENING 1",1,"","Alanine Aminotransferase (U/L)","ALT",1,"CHEM",15,15,6,32,2.5,0.46875,2.5,0.46875,"Y","",null,"R2A1HI > 1.5","N",0],["CDISCPILOT01","1034","01-701-1034","Xanomeline High Dose",81,"Xanomeline High Dose",81,"2014-07-01","2014-12-30",77,"65-80",2,"WHITE",1,"F","Y","","Y","        Baseline",0,-7,"2014-06-24","SCREENING 1",1,"","Aspartate Aminotransferase (U/L)","AST",2,"CHEM",23,23,9,34,2.55555555556,0.676470588235,2.55555555556,0.676470588235,"Y","",null,"R2A1HI > 1.5","N",0],["CDISCPILOT01","1034","01-701-1034","Xanomeline High Dose",81,"Xanomeline High Dose",81,"2014-07-01","2014-12-30",77,"65-80",2,"WHITE",1,"F","Y","","Y","        Baseline",0,-7,"2014-06-24","SCREENING 1",1,"","Bilirubin (umol/L)","BILI",3,"CHEM",10.26,10.26,3,21,3.42,0.488571428571,3.42,0.488571428571,"Y","",null,"R2A1HI > 1.5","N",0],["CDISCPILOT01","1034","01-701-1034","Xanomeline High Dose",81,"Xanomeline High Dose",81,"2014-07-01","2014-12-30",77,"65-80",2,"WHITE",1,"F","Y","","Y","        Baseline",0,null,null,"",null,"DERIVED","Bilirubin 1.5 x ULN","BILIHY",4,"HYLAW",0,0,null,null,null,null,null,null,"Y","Normal to Normal",1,"","",null],["CDISCPILOT01","1034","01-701-1034","Xanomeline High Dose",81,"Xanomeline High Dose",81,"2014-07-01","2014-12-30",77,"65-80",2,"WHITE",1,"F","Y","","Y","        Baseline",0,null,null,"",null,"DERIVED","Transaminase 1.5 x ULN","TRANSHY",5,"HYLAW",0,0,null,null,null,null,null,null,"Y","Normal to Normal",1,"","",null],["CDISCPILOT01","1034","01-701-1034","Xanomeline High Dose",81,"Xanomeline High Dose",81,"2014-07-01","2014-12-30",77,"65-80",2,"WHITE",1,"F","Y","","Y","        Baseline",0,null,null,"",null,"DERIVED","Total Bili 1.5 x ULN and Transaminase 1.5 x ULN","HYLAW",6,"HYLAW",0,0,null,null,null,null,null,null,"Y","Normal to Normal",1,"","",null],["CDISCPILOT01","1034","01-701-1034","Xanomeline High Dose",81,"Xanomeline High Dose",81,"2014-07-01","2014-12-30",77,"65-80",2,"WHITE",1,"F","Y","","Y","          Week 2",2,15,"2014-07-15","WEEK 2",4,"","Alanine Aminotransferase (U/L)","ALT",1,"CHEM",19,15,6,32,3.16666666667,0.59375,2.5,0.46875,"","",null,"R2A1HI > 1.5","N",0],["CDISCPILOT01","1034","01-701-1034","Xanomeline High Dose",81,"Xanomeline High Dose",81,"2014-07-01","2014-12-30",77,"65-80",2,"WHITE",1,"F","Y","","Y","          Week 2",2,15,"2014-07-15","WEEK 2",4,"","Aspartate Aminotransferase (U/L)","AST",2,"CHEM",23,23,9,34,2.55555555556,0.676470588235,2.55555555556,0.676470588235,"","",null,"R2A1HI > 1.5","N",0],["CDISCPILOT01","1034","01-701-1034","Xanomeline High Dose",81,"Xanomeline High Dose",81,"2014-07-01","2014-12-30",77,"65-80",2,"WHITE",1,"F","Y","","Y","          Week 2",2,15,"2014-07-15","WEEK 2",4,"","Bilirubin (umol/L)","BILI",3,"CHEM",6.84,10.26,3,21,2.28,0.325714285714,3.42,0.488571428571,"","",null,"R2A1HI > 1.5","N",0],["CDISCPILOT01","1034","01-701-1034","Xanomeline High Dose",81,"Xanomeline High Dose",81,"2014-07-01","2014-12-30",77,"65-80",2,"WHITE",1,"F","Y","","Y","          Week 2",2,null,null,"",null,"DERIVED","Bilirubin 1.5 x ULN","BILIHY",4,"HYLAW",0,0,null,null,null,null,null,null,"","Normal to Normal",1,"","",null],["CDISCPILOT01","1034","01-701-1034","Xanomeline High Dose",81,"Xanomeline High Dose",81,"2014-07-01","2014-12-30",77,"65-80",2,"WHITE",1,"F","Y","","Y","          Week 2",2,null,null,"",null,"DERIVED","Transaminase 1.5 x ULN","TRANSHY",5,"HYLAW",0,0,null,null,null,null,null,null,"","Normal to Normal",1,"","",null],["CDISCPILOT01","1034","01-701-1034","Xanomeline High Dose",81,"Xanomeline High Dose",81,"2014-07-01","2014-12-30",77,"65-80",2,"WHITE",1,"F","Y","","Y","          Week 2",2,null,null,"",null,"DERIVED","Total Bili 1.5 x ULN and Transaminase 1.5 x ULN","HYLAW",6,"HYLAW",0,0,null,null,null,null,null,null,"","Normal to Normal",1,"","",null],["CDISCPILOT01","1034","01-701-1034","Xanomeline High Dose",81,"Xanomeline High Dose",81,"2014-07-01","2014-12-30",77,"65-80",2,"WHITE",1,"F","Y","","Y","          Week 4",4,29,"2014-07-29","WEEK 4",5,"","Alanine Aminotransferase (U/L)","ALT",1,"CHEM",21,15,6,32,3.5,0.65625,2.5,0.46875,"","",null,"R2A1HI > 1.5","N",0],["CDISCPILOT01","1034","01-701-1034","Xanomeline High Dose",81,"Xanomeline High Dose",81,"2014-07-01","2014-12-30",77,"65-80",2,"WHITE",1,"F","Y","","Y","          Week 4",4,29,"2014-07-29","WEEK 4",5,"","Aspartate Aminotransferase (U/L)","AST",2,"CHEM",25,23,9,34,2.77777777778,0.735294117647,2.55555555556,0.676470588235,"","",null,"R2A1HI > 1.5","N",0],["CDISCPILOT01","1034","01-701-1034","Xanomeline High Dose",81,"Xanomeline High Dose",81,"2014-07-01","2014-12-30",77,"65-80",2,"WHITE",1,"F","Y","","Y","          Week 4",4,29,"2014-07-29","WEEK 4",5,"","Bilirubin (umol/L)","BILI",3,"CHEM",6.84,10.26,3,21,2.28,0.325714285714,3.42,0.488571428571,"","",null,"R2A1HI > 1.5","N",0],["CDISCPILOT01","1034","01-701-1034","Xanomeline High Dose",81,"Xanomeline High Dose",81,"2014-07-01","2014-12-30",77,"65-80",2,"WHITE",1,"F","Y","","Y","          Week 4",4,null,null,"",null,"DERIVED","Bilirubin 1.5 x ULN","BILIHY",4,"HYLAW",0,0,null,null,null,null,null,null,"","Normal to Normal",1,"","",null],["CDISCPILOT01","1034","01-701-1034","Xanomeline High Dose",81,"Xanomeline High Dose",81,"2014-07-01","2014-12-30",77,"65-80",2,"WHITE",1,"F","Y","","Y","          Week 4",4,null,null,"",null,"DERIVED","Transaminase 1.5 x ULN","TRANSHY",5,"HYLAW",0,0,null,null,null,null,null,null,"","Normal to Normal",1,"","",null],["CDISCPILOT01","1034","01-701-1034","Xanomeline High Dose",81,"Xanomeline High Dose",81,"2014-07-01","2014-12-30",77,"65-80",2,"WHITE",1,"F","Y","","Y","          Week 4",4,null,null,"",null,"DERIVED","Total Bili 1.5 x ULN and Transaminase 1.5 x ULN","HYLAW",6,"HYLAW",0,0,null,null,null,null,null,null,"","Normal to Normal",1,"","",null],["CDISCPILOT01","1034","01-701-1034","Xanomeline High Dose",81,"Xanomeline High Dose",81,"2014-07-01","2014-12-30",77,"65-80",2,"WHITE",1,"F","Y","","Y","          Week 6",6,42,"2014-08-11","WEEK 6",7,"","Alanine Aminotransferase (U/L)","ALT",1,"CHEM",15,15,6,32,2.5,0.46875,2.5,0.46875,"","",null,"R2A1HI > 1.5","N",0],["CDISCPILOT01","1034","01-701-1034","Xanomeline High Dose",81,"Xanomeline High Dose",81,"2014-07-01","2014-12-30",77,"65-80",2,"WHITE",1,"F","Y","","Y","          Week 6",6,42,"2014-08-11","WEEK 6",7,"","Aspartate Aminotransferase (U/L)","AST",2,"CHEM",19,23,9,34,2.11111111111,0.558823529412,2.55555555556,0.676470588235,"","",null,"R2A1HI > 1.5","N",0],["CDISCPILOT01","1034","01-701-1034","Xanomeline High Dose",81,"Xanomeline High Dose",81,"2014-07-01","2014-12-30",77,"65-80",2,"WHITE",1,"F","Y","","Y","          Week 6",6,42,"2014-08-11","WEEK 6",7,"","Bilirubin (umol/L)","BILI",3,"CHEM",6.84,10.26,3,21,2.28,0.325714285714,3.42,0.488571428571,"","",null,"R2A1HI > 1.5","N",0],["CDISCPILOT01","1034","01-701-1034","Xanomeline High Dose",81,"Xanomeline High Dose",81,"2014-07-01","2014-12-30",77,"65-80",2,"WHITE",1,"F","Y","","Y","          Week 6",6,null,null,"",null,"DERIVED","Bilirubin 1.5 x ULN","BILIHY",4,"HYLAW",0,0,null,null,null,null,null,null,"","Normal to Normal",1,"","",null],["CDISCPILOT01","1034","01-701-1034","Xanomeline High Dose",81,"Xanomeline High Dose",81,"2014-07-01","2014-12-30",77,"65-80",2,"WHITE",1,"F","Y","","Y","          Week 6",6,null,null,"",null,"DERIVED","Transaminase 1.5 x ULN","TRANSHY",5,"HYLAW",0,0,null,null,null,null,null,null,"","Normal to Normal",1,"","",null],["CDISCPILOT01","1034","01-701-1034","Xanomeline High Dose",81,"Xanomeline High Dose",81,"2014-07-01","2014-12-30",77,"65-80",2,"WHITE",1,"F","Y","","Y","          Week 6",6,null,null,"",null,"DERIVED","Total Bili 1.5 x ULN and Transaminase 1.5 x ULN","HYLAW",6,"HYLAW",0,0,null,null,null,null,null,null,"","Normal to Normal",1,"","",null],["CDISCPILOT01","1034","01-701-1034","Xanomeline High Dose",81,"Xanomeline High Dose",81,"2014-07-01","2014-12-30",77,"65-80",2,"WHITE",1,"F","Y","","Y","          Week 8",8,57,"2014-08-26","WEEK 8",8,"","Alanine Aminotransferase (U/L)","ALT",1,"CHEM",24,15,6,32,4,0.75,2.5,0.46875,"","",null,"R2A1HI > 1.5","N",0],["CDISCPILOT01","1034","01-701-1034","Xanomeline High Dose",81,"Xanomeline High Dose",81,"2014-07-01","2014-12-30",77,"65-80",2,"WHITE",1,"F","Y","","Y","          Week 8",8,57,"2014-08-26","WEEK 8",8,"","Aspartate Aminotransferase (U/L)","AST",2,"CHEM",26,23,9,34,2.88888888889,0.764705882353,2.55555555556,0.676470588235,"","",null,"R2A1HI > 1.5","N",0],["CDISCPILOT01","1034","01-701-1034","Xanomeline High Dose",81,"Xanomeline High Dose",81,"2014-07-01","2014-12-30",77,"65-80",2,"WHITE",1,"F","Y","","Y","          Week 8",8,57,"2014-08-26","WEEK 8",8,"","Bilirubin (umol/L)","BILI",3,"CHEM",8.55,10.26,3,21,2.85,0.407142857143,3.42,0.488571428571,"","",null,"R2A1HI > 1.5","N",0],["CDISCPILOT01","1034","01-701-1034","Xanomeline High Dose",81,"Xanomeline High Dose",81,"2014-07-01","2014-12-30",77,"65-80",2,"WHITE",1,"F","Y","","Y","          Week 8",8,null,null,"",null,"DERIVED","Bilirubin 1.5 x ULN","BILIHY",4,"HYLAW",0,0,null,null,null,null,null,null,"","Normal to Normal",1,"","",null],["CDISCPILOT01","1034","01-701-1034","Xanomeline High Dose",81,"Xanomeline High Dose",81,"2014-07-01","2014-12-30",77,"65-80",2,"WHITE",1,"F","Y","","Y","          Week 8",8,null,null,"",null,"DERIVED","Transaminase 1.5 x ULN","TRANSHY",5,"HYLAW",0,0,null,null,null,null,null,null,"","Normal to Normal",1,"","",null],["CDISCPILOT01","1034","01-701-1034","Xanomeline High Dose",81,"Xanomeline High Dose",81,"2014-07-01","2014-12-30",77,"65-80",2,"WHITE",1,"F","Y","","Y","          Week 8",8,null,null,"",null,"DERIVED","Total Bili 1.5 x ULN and Transaminase 1.5 x ULN","HYLAW",6,"HYLAW",0,0,null,null,null,null,null,null,"","Normal to Normal",1,"","",null],["CDISCPILOT01","1034","01-701-1034","Xanomeline High Dose",81,"Xanomeline High Dose",81,"2014-07-01","2014-12-30",77,"65-80",2,"WHITE",1,"F","Y","","Y","         Week 12",12,87,"2014-09-25","WEEK 12",9,"","Alanine Aminotransferase (U/L)","ALT",1,"CHEM",20,15,6,32,3.33333333333,0.625,2.5,0.46875,"","",null,"R2A1HI > 1.5","N",0],["CDISCPILOT01","1034","01-701-1034","Xanomeline High Dose",81,"Xanomeline High Dose",81,"2014-07-01","2014-12-30",77,"65-80",2,"WHITE",1,"F","Y","","Y","         Week 12",12,87,"2014-09-25","WEEK 12",9,"","Aspartate Aminotransferase (U/L)","AST",2,"CHEM",23,23,9,34,2.55555555556,0.676470588235,2.55555555556,0.676470588235,"","",null,"R2A1HI > 1.5","N",0],["CDISCPILOT01","1034","01-701-1034","Xanomeline High Dose",81,"Xanomeline High Dose",81,"2014-07-01","2014-12-30",77,"65-80",2,"WHITE",1,"F","Y","","Y","         Week 12",12,87,"2014-09-25","WEEK 12",9,"","Bilirubin (umol/L)","BILI",3,"CHEM",8.55,10.26,3,21,2.85,0.407142857143,3.42,0.488571428571,"","",null,"R2A1HI > 1.5","N",0],["CDISCPILOT01","1034","01-701-1034","Xanomeline High Dose",81,"Xanomeline High Dose",81,"2014-07-01","2014-12-30",77,"65-80",2,"WHITE",1,"F","Y","","Y","         Week 12",12,null,null,"",null,"DERIVED","Bilirubin 1.5 x ULN","BILIHY",4,"HYLAW",0,0,null,null,null,null,null,null,"","Normal to Normal",1,"","",null],["CDISCPILOT01","1034","01-701-1034","Xanomeline High Dose",81,"Xanomeline High Dose",81,"2014-07-01","2014-12-30",77,"65-80",2,"WHITE",1,"F","Y","","Y","         Week 12",12,null,null,"",null,"DERIVED","Transaminase 1.5 x ULN","TRANSHY",5,"HYLAW",0,0,null,null,null,null,null,null,"","Normal to Normal",1,"","",null],["CDISCPILOT01","1034","01-701-1034","Xanomeline High Dose",81,"Xanomeline High Dose",81,"2014-07-01","2014-12-30",77,"65-80",2,"WHITE",1,"F","Y","","Y","         Week 12",12,null,null,"",null,"DERIVED","Total Bili 1.5 x ULN and Transaminase 1.5 x ULN","HYLAW",6,"HYLAW",0,0,null,null,null,null,null,null,"","Normal to Normal",1,"","",null],["CDISCPILOT01","1034","01-701-1034","Xanomeline High Dose",81,"Xanomeline High Dose",81,"2014-07-01","2014-12-30",77,"65-80",2,"WHITE",1,"F","Y","","Y","         Week 16",16,113,"2014-10-21","WEEK 16",10,"","Alanine Aminotransferase (U/L)","ALT",1,"CHEM",21,15,6,32,3.5,0.65625,2.5,0.46875,"","",null,"R2A1HI > 1.5","N",0],["CDISCPILOT01","1034","01-701-1034","Xanomeline High Dose",81,"Xanomeline High Dose",81,"2014-07-01","2014-12-30",77,"65-80",2,"WHITE",1,"F","Y","","Y","         Week 16",16,113,"2014-10-21","WEEK 16",10,"","Aspartate Aminotransferase (U/L)","AST",2,"CHEM",21,23,9,34,2.33333333333,0.617647058824,2.55555555556,0.676470588235,"","",null,"R2A1HI > 1.5","N",0],["CDISCPILOT01","1034","01-701-1034","Xanomeline High Dose",81,"Xanomeline High Dose",81,"2014-07-01","2014-12-30",77,"65-80",2,"WHITE",1,"F","Y","","Y","         Week 16",16,113,"2014-10-21","WEEK 16",10,"","Bilirubin (umol/L)","BILI",3,"CHEM",6.84,10.26,3,21,2.28,0.325714285714,3.42,0.488571428571,"","",null,"R2A1HI > 1.5","N",0],["CDISCPILOT01","1034","01-701-1034","Xanomeline High Dose",81,"Xanomeline High Dose",81,"2014-07-01","2014-12-30",77,"65-80",2,"WHITE",1,"F","Y","","Y","         Week 16",16,null,null,"",null,"DERIVED","Bilirubin 1.5 x ULN","BILIHY",4,"HYLAW",0,0,null,null,null,null,null,null,"","Normal to Normal",1,"","",null],["CDISCPILOT01","1034","01-701-1034","Xanomeline High Dose",81,"Xanomeline High Dose",81,"2014-07-01","2014-12-30",77,"65-80",2,"WHITE",1,"F","Y","","Y","         Week 16",16,null,null,"",null,"DERIVED","Transaminase 1.5 x ULN","TRANSHY",5,"HYLAW",0,0,null,null,null,null,null,null,"","Normal to Normal",1,"","",null],["CDISCPILOT01","1034","01-701-1034","Xanomeline High Dose",81,"Xanomeline High Dose",81,"2014-07-01","2014-12-30",77,"65-80",2,"WHITE",1,"F","Y","","Y","         Week 16",16,null,null,"",null,"DERIVED","Total Bili 1.5 x ULN and Transaminase 1.5 x ULN","HYLAW",6,"HYLAW",0,0,null,null,null,null,null,null,"","Normal to Normal",1,"","",null],["CDISCPILOT01","1034","01-701-1034","Xanomeline High Dose",81,"Xanomeline High Dose",81,"2014-07-01","2014-12-30",77,"65-80",2,"WHITE",1,"F","Y","","Y","         Week 20",20,141,"2014-11-18","WEEK 20",11,"","Alanine Aminotransferase (U/L)","ALT",1,"CHEM",23,15,6,32,3.83333333333,0.71875,2.5,0.46875,"","",null,"R2A1HI > 1.5","N",0],["CDISCPILOT01","1034","01-701-1034","Xanomeline High Dose",81,"Xanomeline High Dose",81,"2014-07-01","2014-12-30",77,"65-80",2,"WHITE",1,"F","Y","","Y","         Week 20",20,141,"2014-11-18","WEEK 20",11,"","Aspartate Aminotransferase (U/L)","AST",2,"CHEM",22,23,9,34,2.44444444444,0.647058823529,2.55555555556,0.676470588235,"","",null,"R2A1HI > 1.5","N",0],["CDISCPILOT01","1034","01-701-1034","Xanomeline High Dose",81,"Xanomeline High Dose",81,"2014-07-01","2014-12-30",77,"65-80",2,"WHITE",1,"F","Y","","Y","         Week 20",20,141,"2014-11-18","WEEK 20",11,"","Bilirubin (umol/L)","BILI",3,"CHEM",5.13,10.26,3,21,1.71,0.244285714286,3.42,0.488571428571,"","",null,"R2A1HI > 1.5","N",0],["CDISCPILOT01","1034","01-701-1034","Xanomeline High Dose",81,"Xanomeline High Dose",81,"2014-07-01","2014-12-30",77,"65-80",2,"WHITE",1,"F","Y","","Y","         Week 20",20,null,null,"",null,"DERIVED","Bilirubin 1.5 x ULN","BILIHY",4,"HYLAW",0,0,null,null,null,null,null,null,"","Normal to Normal",1,"","",null],["CDISCPILOT01","1034","01-701-1034","Xanomeline High Dose",81,"Xanomeline High Dose",81,"2014-07-01","2014-12-30",77,"65-80",2,"WHITE",1,"F","Y","","Y","         Week 20",20,null,null,"",null,"DERIVED","Transaminase 1.5 x ULN","TRANSHY",5,"HYLAW",0,0,null,null,null,null,null,null,"","Normal to Normal",1,"","",null],["CDISCPILOT01","1034","01-701-1034","Xanomeline High Dose",81,"Xanomeline High Dose",81,"2014-07-01","2014-12-30",77,"65-80",2,"WHITE",1,"F","Y","","Y","         Week 20",20,null,null,"",null,"DERIVED","Total Bili 1.5 x ULN and Transaminase 1.5 x ULN","HYLAW",6,"HYLAW",0,0,null,null,null,null,null,null,"","Normal to Normal",1,"","",null],["CDISCPILOT01","1034","01-701-1034","Xanomeline High Dose",81,"Xanomeline High Dose",81,"2014-07-01","2014-12-30",77,"65-80",2,"WHITE",1,"F","Y","","Y","         Week 24",24,170,"2014-12-17","WEEK 24",12,"","Alanine Aminotransferase (U/L)","ALT",1,"CHEM",15,15,6,32,2.5,0.46875,2.5,0.46875,"","",null,"R2A1HI > 1.5","N",0],["CDISCPILOT01","1034","01-701-1034","Xanomeline High Dose",81,"Xanomeline High Dose",81,"2014-07-01","2014-12-30",77,"65-80",2,"WHITE",1,"F","Y","","Y","         Week 24",24,170,"2014-12-17","WEEK 24",12,"","Aspartate Aminotransferase (U/L)","AST",2,"CHEM",17,23,9,34,1.88888888889,0.5,2.55555555556,0.676470588235,"","",null,"R2A1HI > 1.5","N",0],["CDISCPILOT01","1034","01-701-1034","Xanomeline High Dose",81,"Xanomeline High Dose",81,"2014-07-01","2014-12-30",77,"65-80",2,"WHITE",1,"F","Y","","Y","         Week 24",24,170,"2014-12-17","WEEK 24",12,"","Bilirubin (umol/L)","BILI",3,"CHEM",6.84,10.26,3,21,2.28,0.325714285714,3.42,0.488571428571,"","",null,"R2A1HI > 1.5","N",0],["CDISCPILOT01","1034","01-701-1034","Xanomeline High Dose",81,"Xanomeline High Dose",81,"2014-07-01","2014-12-30",77,"65-80",2,"WHITE",1,"F","Y","","Y","         Week 24",24,null,null,"",null,"DERIVED","Bilirubin 1.5 x ULN","BILIHY",4,"HYLAW",0,0,null,null,null,null,null,null,"","Normal to Normal",1,"","",null],["CDISCPILOT01","1034","01-701-1034","Xanomeline High Dose",81,"Xanomeline High Dose",81,"2014-07-01","2014-12-30",77,"65-80",2,"WHITE",1,"F","Y","","Y","         Week 24",24,null,null,"",null,"DERIVED","Transaminase 1.5 x ULN","TRANSHY",5,"HYLAW",0,0,null,null,null,null,null,null,"","Normal to Normal",1,"","",null],["CDISCPILOT01","1034","01-701-1034","Xanomeline High Dose",81,"Xanomeline High Dose",81,"2014-07-01","2014-12-30",77,"65-80",2,"WHITE",1,"F","Y","","Y","         Week 24",24,null,null,"",null,"DERIVED","Total Bili 1.5 x ULN and Transaminase 1.5 x ULN","HYLAW",6,"HYLAW",0,0,null,null,null,null,null,null,"","Normal to Normal",1,"","",null],["CDISCPILOT01","1047","01-701-1047","Placebo",0,"Placebo",0,"2013-02-12","2013-03-09",85,">80",3,"WHITE",1,"F","N","Y","Y","        Baseline",0,-21,"2013-01-22","SCREENING 1",1,"","Alanine Aminotransferase (U/L)","ALT",1,"CHEM",22,22,6,32,3.66666666667,0.6875,3.66666666667,0.6875,"Y","",null,"R2A1HI > 1.5","N",0],["CDISCPILOT01","1047","01-701-1047","Placebo",0,"Placebo",0,"2013-02-12","2013-03-09",85,">80",3,"WHITE",1,"F","N","Y","Y","        Baseline",0,-21,"2013-01-22","SCREENING 1",1,"","Aspartate Aminotransferase (U/L)","AST",2,"CHEM",25,25,9,34,2.77777777778,0.735294117647,2.77777777778,0.735294117647,"Y","",null,"R2A1HI > 1.5","N",0],["CDISCPILOT01","1047","01-701-1047","Placebo",0,"Placebo",0,"2013-02-12","2013-03-09",85,">80",3,"WHITE",1,"F","N","Y","Y","        Baseline",0,-21,"2013-01-22","SCREENING 1",1,"","Bilirubin (umol/L)","BILI",3,"CHEM",6.84,6.84,3,21,2.28,0.325714285714,2.28,0.325714285714,"Y","",null,"R2A1HI > 1.5","N",0],["CDISCPILOT01","1047","01-701-1047","Placebo",0,"Placebo",0,"2013-02-12","2013-03-09",85,">80",3,"WHITE",1,"F","N","Y","Y","        Baseline",0,null,null,"",null,"DERIVED","Bilirubin 1.5 x ULN","BILIHY",4,"HYLAW",0,0,null,null,null,null,null,null,"Y","Normal to Normal",1,"","",null],["CDISCPILOT01","1047","01-701-1047","Placebo",0,"Placebo",0,"2013-02-12","2013-03-09",85,">80",3,"WHITE",1,"F","N","Y","Y","        Baseline",0,null,null,"",null,"DERIVED","Transaminase 1.5 x ULN","TRANSHY",5,"HYLAW",0,0,null,null,null,null,null,null,"Y","Normal to Normal",1,"","",null],["CDISCPILOT01","1047","01-701-1047","Placebo",0,"Placebo",0,"2013-02-12","2013-03-09",85,">80",3,"WHITE",1,"F","N","Y","Y","        Baseline",0,null,null,"",null,"DERIVED","Total Bili 1.5 x ULN and Transaminase 1.5 x ULN","HYLAW",6,"HYLAW",0,0,null,null,null,null,null,null,"Y","Normal to Normal",1,"","",null],["CDISCPILOT01","1047","01-701-1047","Placebo",0,"Placebo",0,"2013-02-12","2013-03-09",85,">80",3,"WHITE",1,"F","N","Y","Y","          Week 2",2,14,"2013-02-25","WEEK 2",4,"","Alanine Aminotransferase (U/L)","ALT",1,"CHEM",16,22,6,32,2.66666666667,0.5,3.66666666667,0.6875,"","",null,"R2A1HI > 1.5","N",0],["CDISCPILOT01","1047","01-701-1047","Placebo",0,"Placebo",0,"2013-02-12","2013-03-09",85,">80",3,"WHITE",1,"F","N","Y","Y","          Week 2",2,14,"2013-02-25","WEEK 2",4,"","Aspartate Aminotransferase (U/L)","AST",2,"CHEM",21,25,9,34,2.33333333333,0.617647058824,2.77777777778,0.735294117647,"","",null,"R2A1HI > 1.5","N",0],["CDISCPILOT01","1047","01-701-1047","Placebo",0,"Placebo",0,"2013-02-12","2013-03-09",85,">80",3,"WHITE",1,"F","N","Y","Y","          Week 2",2,14,"2013-02-25","WEEK 2",4,"","Bilirubin (umol/L)","BILI",3,"CHEM",8.55,6.84,3,21,2.85,0.407142857143,2.28,0.325714285714,"","",null,"R2A1HI > 1.5","N",0],["CDISCPILOT01","1047","01-701-1047","Placebo",0,"Placebo",0,"2013-02-12","2013-03-09",85,">80",3,"WHITE",1,"F","N","Y","Y","          Week 2",2,null,null,"",null,"DERIVED","Bilirubin 1.5 x ULN","BILIHY",4,"HYLAW",0,0,null,null,null,null,null,null,"","Normal to Normal",1,"","",null],["CDISCPILOT01","1047","01-701-1047","Placebo",0,"Placebo",0,"2013-02-12","2013-03-09",85,">80",3,"WHITE",1,"F","N","Y","Y","          Week 2",2,null,null,"",null,"DERIVED","Transaminase 1.5 x ULN","TRANSHY",5,"HYLAW",0,0,null,null,null,null,null,null,"","Normal to Normal",1,"","",null],["CDISCPILOT01","1047","01-701-1047","Placebo",0,"Placebo",0,"2013-02-12","2013-03-09",85,">80",3,"WHITE",1,"F","N","Y","Y","          Week 2",2,null,null,"",null,"DERIVED","Total Bili 1.5 x ULN and Transaminase 1.5 x ULN","HYLAW",6,"HYLAW",0,0,null,null,null,null,null,null,"","Normal to Normal",1,"","",null],["CDISCPILOT01","1047","01-701-1047","Placebo",0,"Placebo",0,"2013-02-12","2013-03-09",85,">80",3,"WHITE",1,"F","N","Y","Y","          Week 4",4,27,"2013-03-10","WEEK 4",5,"","Alanine Aminotransferase (U/L)","ALT",1,"CHEM",20,22,6,32,3.33333333333,0.625,3.66666666667,0.6875,"","",null,"R2A1HI > 1.5","N",0],["CDISCPILOT01","1047","01-701-1047","Placebo",0,"Placebo",0,"2013-02-12","2013-03-09",85,">80",3,"WHITE",1,"F","N","Y","Y","          Week 4",4,27,"2013-03-10","WEEK 4",5,"","Aspartate Aminotransferase (U/L)","AST",2,"CHEM",24,25,9,34,2.66666666667,0.705882352941,2.77777777778,0.735294117647,"","",null,"R2A1HI > 1.5","N",0],["CDISCPILOT01","1047","01-701-1047","Placebo",0,"Placebo",0,"2013-02-12","2013-03-09",85,">80",3,"WHITE",1,"F","N","Y","Y","          Week 4",4,27,"2013-03-10","WEEK 4",5,"","Bilirubin (umol/L)","BILI",3,"CHEM",6.84,6.84,3,21,2.28,0.325714285714,2.28,0.325714285714,"","",null,"R2A1HI > 1.5","N",0],["CDISCPILOT01","1047","01-701-1047","Placebo",0,"Placebo",0,"2013-02-12","2013-03-09",85,">80",3,"WHITE",1,"F","N","Y","Y","          Week 4",4,null,null,"",null,"DERIVED","Bilirubin 1.5 x ULN","BILIHY",4,"HYLAW",0,0,null,null,null,null,null,null,"","Normal to Normal",1,"","",null],["CDISCPILOT01","1047","01-701-1047","Placebo",0,"Placebo",0,"2013-02-12","2013-03-09",85,">80",3,"WHITE",1,"F","N","Y","Y","          Week 4",4,null,null,"",null,"DERIVED","Transaminase 1.5 x ULN","TRANSHY",5,"HYLAW",0,0,null,null,null,null,null,null,"","Normal to Normal",1,"","",null],["CDISCPILOT01","1047","01-701-1047","Placebo",0,"Placebo",0,"2013-02-12","2013-03-09",85,">80",3,"WHITE",1,"F","N","Y","Y","          Week 4",4,null,null,"",null,"DERIVED","Total Bili 1.5 x ULN and Transaminase 1.5 x ULN","HYLAW",6,"HYLAW",0,0,null,null,null,null,null,null,"","Normal to Normal",1,"","",null],["CDISCPILOT01","1097","01-701-1097","Xanomeline Low Dose",54,"Xanomeline Low Dose",54,"2014-01-01","2014-07-09",68,"65-80",2,"WHITE",1,"M","Y","","Y","        Baseline",0,-9,"2013-12-23","SCREENING 1",1,"","Alanine Aminotransferase (U/L)","ALT",1,"CHEM",16,16,6,43,2.66666666667,0.372093023256,2.66666666667,0.372093023256,"Y","",null,"R2A1HI > 1.5","N",0],["CDISCPILOT01","1097","01-701-1097","Xanomeline Low Dose",54,"Xanomeline Low Dose",54,"2014-01-01","2014-07-09",68,"65-80",2,"WHITE",1,"M","Y","","Y","        Baseline",0,-9,"2013-12-23","SCREENING 1",1,"","Aspartate Aminotransferase (U/L)","AST",2,"CHEM",19,19,11,36,1.72727272727,0.527777777778,1.72727272727,0.527777777778,"Y","",null,"R2A1HI > 1.5","N",0],["CDISCPILOT01","1097","01-701-1097","Xanomeline Low Dose",54,"Xanomeline Low Dose",54,"2014-01-01","2014-07-09",68,"65-80",2,"WHITE",1,"M","Y","","Y","        Baseline",0,-9,"2013-12-23","SCREENING 1",1,"","Bilirubin (umol/L)","BILI",3,"CHEM",6.84,6.84,3,21,2.28,0.325714285714,2.28,0.325714285714,"Y","",null,"R2A1HI > 1.5","N",0],["CDISCPILOT01","1097","01-701-1097","Xanomeline Low Dose",54,"Xanomeline Low Dose",54,"2014-01-01","2014-07-09",68,"65-80",2,"WHITE",1,"M","Y","","Y","        Baseline",0,null,null,"",null,"DERIVED","Bilirubin 1.5 x ULN","BILIHY",4,"HYLAW",0,0,null,null,null,null,null,null,"Y","Normal to Normal",1,"","",null],["CDISCPILOT01","1097","01-701-1097","Xanomeline Low Dose",54,"Xanomeline Low Dose",54,"2014-01-01","2014-07-09",68,"65-80",2,"WHITE",1,"M","Y","","Y","        Baseline",0,null,null,"",null,"DERIVED","Transaminase 1.5 x ULN","TRANSHY",5,"HYLAW",0,0,null,null,null,null,null,null,"Y","Normal to Normal",1,"","",null],["CDISCPILOT01","1097","01-701-1097","Xanomeline Low Dose",54,"Xanomeline Low Dose",54,"2014-01-01","2014-07-09",68,"65-80",2,"WHITE",1,"M","Y","","Y","        Baseline",0,null,null,"",null,"DERIVED","Total Bili 1.5 x ULN and Transaminase 1.5 x ULN","HYLAW",6,"HYLAW",0,0,null,null,null,null,null,null,"Y","Normal to Normal",1,"","",null],["CDISCPILOT01","1097","01-701-1097","Xanomeline Low Dose",54,"Xanomeline Low Dose",54,"2014-01-01","2014-07-09",68,"65-80",2,"WHITE",1,"M","Y","","Y","          Week 2",2,15,"2014-01-15","WEEK 2",4,"","Alanine Aminotransferase (U/L)","ALT",1,"CHEM",24,16,6,43,4,0.558139534884,2.66666666667,0.372093023256,"","",null,"R2A1HI > 1.5","N",0],["CDISCPILOT01","1097","01-701-1097","Xanomeline Low Dose",54,"Xanomeline Low Dose",54,"2014-01-01","2014-07-09",68,"65-80",2,"WHITE",1,"M","Y","","Y","          Week 2",2,15,"2014-01-15","WEEK 2",4,"","Aspartate Aminotransferase (U/L)","AST",2,"CHEM",21,19,11,36,1.90909090909,0.583333333333,1.72727272727,0.527777777778,"","",null,"R2A1HI > 1.5","N",0],["CDISCPILOT01","1097","01-701-1097","Xanomeline Low Dose",54,"Xanomeline Low Dose",54,"2014-01-01","2014-07-09",68,"65-80",2,"WHITE",1,"M","Y","","Y","          Week 2",2,15,"2014-01-15","WEEK 2",4,"","Bilirubin (umol/L)","BILI",3,"CHEM",8.55,6.84,3,21,2.85,0.407142857143,2.28,0.325714285714,"","",null,"R2A1HI > 1.5","N",0],["CDISCPILOT01","1097","01-701-1097","Xanomeline Low Dose",54,"Xanomeline Low Dose",54,"2014-01-01","2014-07-09",68,"65-80",2,"WHITE",1,"M","Y","","Y","          Week 2",2,null,null,"",null,"DERIVED","Bilirubin 1.5 x ULN","BILIHY",4,"HYLAW",0,0,null,null,null,null,null,null,"","Normal to Normal",1,"","",null],["CDISCPILOT01","1097","01-701-1097","Xanomeline Low Dose",54,"Xanomeline Low Dose",54,"2014-01-01","2014-07-09",68,"65-80",2,"WHITE",1,"M","Y","","Y","          Week 2",2,null,null,"",null,"DERIVED","Transaminase 1.5 x ULN","TRANSHY",5,"HYLAW",0,0,null,null,null,null,null,null,"","Normal to Normal",1,"","",null],["CDISCPILOT01","1097","01-701-1097","Xanomeline Low Dose",54,"Xanomeline Low Dose",54,"2014-01-01","2014-07-09",68,"65-80",2,"WHITE",1,"M","Y","","Y","          Week 2",2,null,null,"",null,"DERIVED","Total Bili 1.5 x ULN and Transaminase 1.5 x ULN","HYLAW",6,"HYLAW",0,0,null,null,null,null,null,null,"","Normal to Normal",1,"","",null],["CDISCPILOT01","1097","01-701-1097","Xanomeline Low Dose",54,"Xanomeline Low Dose",54,"2014-01-01","2014-07-09",68,"65-80",2,"WHITE",1,"M","Y","","Y","          Week 4",4,29,"2014-01-29","WEEK 4",5,"","Alanine Aminotransferase (U/L)","ALT",1,"CHEM",17,16,6,43,2.83333333333,0.395348837209,2.66666666667,0.372093023256,"","",null,"R2A1HI > 1.5","N",0],["CDISCPILOT01","1097","01-701-1097","Xanomeline Low Dose",54,"Xanomeline Low Dose",54,"2014-01-01","2014-07-09",68,"65-80",2,"WHITE",1,"M","Y","","Y","          Week 4",4,29,"2014-01-29","WEEK 4",5,"","Aspartate Aminotransferase (U/L)","AST",2,"CHEM",16,19,11,36,1.45454545455,0.444444444444,1.72727272727,0.527777777778,"","",null,"R2A1HI > 1.5","N",0],["CDISCPILOT01","1097","01-701-1097","Xanomeline Low Dose",54,"Xanomeline Low Dose",54,"2014-01-01","2014-07-09",68,"65-80",2,"WHITE",1,"M","Y","","Y","          Week 4",4,29,"2014-01-29","WEEK 4",5,"","Bilirubin (umol/L)","BILI",3,"CHEM",10.26,6.84,3,21,3.42,0.488571428571,2.28,0.325714285714,"","",null,"R2A1HI > 1.5","N",0],["CDISCPILOT01","1097","01-701-1097","Xanomeline Low Dose",54,"Xanomeline Low Dose",54,"2014-01-01","2014-07-09",68,"65-80",2,"WHITE",1,"M","Y","","Y","          Week 4",4,null,null,"",null,"DERIVED","Bilirubin 1.5 x ULN","BILIHY",4,"HYLAW",0,0,null,null,null,null,null,null,"","Normal to Normal",1,"","",null],["CDISCPILOT01","1097","01-701-1097","Xanomeline Low Dose",54,"Xanomeline Low Dose",54,"2014-01-01","2014-07-09",68,"65-80",2,"WHITE",1,"M","Y","","Y","          Week 4",4,null,null,"",null,"DERIVED","Transaminase 1.5 x ULN","TRANSHY",5,"HYLAW",0,0,null,null,null,null,null,null,"","Normal to Normal",1,"","",null],["CDISCPILOT01","1097","01-701-1097","Xanomeline Low Dose",54,"Xanomeline Low Dose",54,"2014-01-01","2014-07-09",68,"65-80",2,"WHITE",1,"M","Y","","Y","          Week 4",4,null,null,"",null,"DERIVED","Total Bili 1.5 x ULN and Transaminase 1.5 x ULN","HYLAW",6,"HYLAW",0,0,null,null,null,null,null,null,"","Normal to Normal",1,"","",null],["CDISCPILOT01","1097","01-701-1097","Xanomeline Low Dose",54,"Xanomeline Low Dose",54,"2014-01-01","2014-07-09",68,"65-80",2,"WHITE",1,"M","Y","","Y","          Week 6",6,42,"2014-02-11","WEEK 6",7,"","Alanine Aminotransferase (U/L)","ALT",1,"CHEM",14,16,6,43,2.33333333333,0.325581395349,2.66666666667,0.372093023256,"","",null,"R2A1HI > 1.5","N",0],["CDISCPILOT01","1097","01-701-1097","Xanomeline Low Dose",54,"Xanomeline Low Dose",54,"2014-01-01","2014-07-09",68,"65-80",2,"WHITE",1,"M","Y","","Y","          Week 6",6,42,"2014-02-11","WEEK 6",7,"","Aspartate Aminotransferase (U/L)","AST",2,"CHEM",19,19,11,36,1.72727272727,0.527777777778,1.72727272727,0.527777777778,"","",null,"R2A1HI > 1.5","N",0],["CDISCPILOT01","1097","01-701-1097","Xanomeline Low Dose",54,"Xanomeline Low Dose",54,"2014-01-01","2014-07-09",68,"65-80",2,"WHITE",1,"M","Y","","Y","          Week 6",6,42,"2014-02-11","WEEK 6",7,"","Bilirubin (umol/L)","BILI",3,"CHEM",8.55,6.84,3,21,2.85,0.407142857143,2.28,0.325714285714,"","",null,"R2A1HI > 1.5","N",0],["CDISCPILOT01","1097","01-701-1097","Xanomeline Low Dose",54,"Xanomeline Low Dose",54,"2014-01-01","2014-07-09",68,"65-80",2,"WHITE",1,"M","Y","","Y","          Week 6",6,null,null,"",null,"DERIVED","Bilirubin 1.5 x ULN","BILIHY",4,"HYLAW",0,0,null,null,null,null,null,null,"","Normal to Normal",1,"","",null],["CDISCPILOT01","1097","01-701-1097","Xanomeline Low Dose",54,"Xanomeline Low Dose",54,"2014-01-01","2014-07-09",68,"65-80",2,"WHITE",1,"M","Y","","Y","          Week 6",6,null,null,"",null,"DERIVED","Transaminase 1.5 x ULN","TRANSHY",5,"HYLAW",0,0,null,null,null,null,null,null,"","Normal to Normal",1,"","",null],["CDISCPILOT01","1097","01-701-1097","Xanomeline Low Dose",54,"Xanomeline Low Dose",54,"2014-01-01","2014-07-09",68,"65-80",2,"WHITE",1,"M","Y","","Y","          Week 6",6,null,null,"",null,"DERIVED","Total Bili 1.5 x ULN and Transaminase 1.5 x ULN","HYLAW",6,"HYLAW",0,0,null,null,null,null,null,null,"","Normal to Normal",1,"","",null],["CDISCPILOT01","1097","01-701-1097","Xanomeline Low Dose",54,"Xanomeline Low Dose",54,"2014-01-01","2014-07-09",68,"65-80",2,"WHITE",1,"M","Y","","Y","          Week 8",8,57,"2014-02-26","WEEK 8",8,"","Alanine Aminotransferase (U/L)","ALT",1,"CHEM",18,16,6,43,3,0.418604651163,2.66666666667,0.372093023256,"","",null,"R2A1HI > 1.5","N",0],["CDISCPILOT01","1097","01-701-1097","Xanomeline Low Dose",54,"Xanomeline Low Dose",54,"2014-01-01","2014-07-09",68,"65-80",2,"WHITE",1,"M","Y","","Y","          Week 8",8,57,"2014-02-26","WEEK 8",8,"","Aspartate Aminotransferase (U/L)","AST",2,"CHEM",18,19,11,36,1.63636363636,0.5,1.72727272727,0.527777777778,"","",null,"R2A1HI > 1.5","N",0],["CDISCPILOT01","1097","01-701-1097","Xanomeline Low Dose",54,"Xanomeline Low Dose",54,"2014-01-01","2014-07-09",68,"65-80",2,"WHITE",1,"M","Y","","Y","          Week 8",8,57,"2014-02-26","WEEK 8",8,"","Bilirubin (umol/L)","BILI",3,"CHEM",8.55,6.84,3,21,2.85,0.407142857143,2.28,0.325714285714,"","",null,"R2A1HI > 1.5","N",0],["CDISCPILOT01","1097","01-701-1097","Xanomeline Low Dose",54,"Xanomeline Low Dose",54,"2014-01-01","2014-07-09",68,"65-80",2,"WHITE",1,"M","Y","","Y","          Week 8",8,null,null,"",null,"DERIVED","Bilirubin 1.5 x ULN","BILIHY",4,"HYLAW",0,0,null,null,null,null,null,null,"","Normal to Normal",1,"","",null],["CDISCPILOT01","1097","01-701-1097","Xanomeline Low Dose",54,"Xanomeline Low Dose",54,"2014-01-01","2014-07-09",68,"65-80",2,"WHITE",1,"M","Y","","Y","          Week 8",8,null,null,"",null,"DERIVED","Transaminase 1.5 x ULN","TRANSHY",5,"HYLAW",0,0,null,null,null,null,null,null,"","Normal to Normal",1,"","",null],["CDISCPILOT01","1097","01-701-1097","Xanomeline Low Dose",54,"Xanomeline Low Dose",54,"2014-01-01","2014-07-09",68,"65-80",2,"WHITE",1,"M","Y","","Y","          Week 8",8,null,null,"",null,"DERIVED","Total Bili 1.5 x ULN and Transaminase 1.5 x ULN","HYLAW",6,"HYLAW",0,0,null,null,null,null,null,null,"","Normal to Normal",1,"","",null],["CDISCPILOT01","1097","01-701-1097","Xanomeline Low Dose",54,"Xanomeline Low Dose",54,"2014-01-01","2014-07-09",68,"65-80",2,"WHITE",1,"M","Y","","Y","         Week 12",12,85,"2014-03-26","WEEK 12",9,"","Alanine Aminotransferase (U/L)","ALT",1,"CHEM",14,16,6,43,2.33333333333,0.325581395349,2.66666666667,0.372093023256,"","",null,"R2A1HI > 1.5","N",0],["CDISCPILOT01","1097","01-701-1097","Xanomeline Low Dose",54,"Xanomeline Low Dose",54,"2014-01-01","2014-07-09",68,"65-80",2,"WHITE",1,"M","Y","","Y","         Week 12",12,85,"2014-03-26","WEEK 12",9,"","Aspartate Aminotransferase (U/L)","AST",2,"CHEM",17,19,11,36,1.54545454545,0.472222222222,1.72727272727,0.527777777778,"","",null,"R2A1HI > 1.5","N",0],["CDISCPILOT01","1097","01-701-1097","Xanomeline Low Dose",54,"Xanomeline Low Dose",54,"2014-01-01","2014-07-09",68,"65-80",2,"WHITE",1,"M","Y","","Y","         Week 12",12,85,"2014-03-26","WEEK 12",9,"","Bilirubin (umol/L)","BILI",3,"CHEM",6.84,6.84,3,21,2.28,0.325714285714,2.28,0.325714285714,"","",null,"R2A1HI > 1.5","N",0],["CDISCPILOT01","1097","01-701-1097","Xanomeline Low Dose",54,"Xanomeline Low Dose",54,"2014-01-01","2014-07-09",68,"65-80",2,"WHITE",1,"M","Y","","Y","         Week 12",12,null,null,"",null,"DERIVED","Bilirubin 1.5 x ULN","BILIHY",4,"HYLAW",0,0,null,null,null,null,null,null,"","Normal to Normal",1,"","",null],["CDISCPILOT01","1097","01-701-1097","Xanomeline Low Dose",54,"Xanomeline Low Dose",54,"2014-01-01","2014-07-09",68,"65-80",2,"WHITE",1,"M","Y","","Y","         Week 12",12,null,null,"",null,"DERIVED","Transaminase 1.5 x ULN","TRANSHY",5,"HYLAW",0,0,null,null,null,null,null,null,"","Normal to Normal",1,"","",null],["CDISCPILOT01","1097","01-701-1097","Xanomeline Low Dose",54,"Xanomeline Low Dose",54,"2014-01-01","2014-07-09",68,"65-80",2,"WHITE",1,"M","Y","","Y","         Week 12",12,null,null,"",null,"DERIVED","Total Bili 1.5 x ULN and Transaminase 1.5 x ULN","HYLAW",6,"HYLAW",0,0,null,null,null,null,null,null,"","Normal to Normal",1,"","",null],["CDISCPILOT01","1097","01-701-1097","Xanomeline Low Dose",54,"Xanomeline Low Dose",54,"2014-01-01","2014-07-09",68,"65-80",2,"WHITE",1,"M","Y","","Y","         Week 16",16,113,"2014-04-23","WEEK 16",10,"","Alanine Aminotransferase (U/L)","ALT",1,"CHEM",15,16,6,43,2.5,0.348837209302,2.66666666667,0.372093023256,"","",null,"R2A1HI > 1.5","N",0],["CDISCPILOT01","1097","01-701-1097","Xanomeline Low Dose",54,"Xanomeline Low Dose",54,"2014-01-01","2014-07-09",68,"65-80",2,"WHITE",1,"M","Y","","Y","         Week 16",16,113,"2014-04-23","WEEK 16",10,"","Aspartate Aminotransferase (U/L)","AST",2,"CHEM",17,19,11,36,1.54545454545,0.472222222222,1.72727272727,0.527777777778,"","",null,"R2A1HI > 1.5","N",0],["CDISCPILOT01","1097","01-701-1097","Xanomeline Low Dose",54,"Xanomeline Low Dose",54,"2014-01-01","2014-07-09",68,"65-80",2,"WHITE",1,"M","Y","","Y","         Week 16",16,113,"2014-04-23","WEEK 16",10,"","Bilirubin (umol/L)","BILI",3,"CHEM",6.84,6.84,3,21,2.28,0.325714285714,2.28,0.325714285714,"","",null,"R2A1HI > 1.5","N",0],["CDISCPILOT01","1097","01-701-1097","Xanomeline Low Dose",54,"Xanomeline Low Dose",54,"2014-01-01","2014-07-09",68,"65-80",2,"WHITE",1,"M","Y","","Y","         Week 16",16,null,null,"",null,"DERIVED","Bilirubin 1.5 x ULN","BILIHY",4,"HYLAW",0,0,null,null,null,null,null,null,"","Normal to Normal",1,"","",null],["CDISCPILOT01","1097","01-701-1097","Xanomeline Low Dose",54,"Xanomeline Low Dose",54,"2014-01-01","2014-07-09",68,"65-80",2,"WHITE",1,"M","Y","","Y","         Week 16",16,null,null,"",null,"DERIVED","Transaminase 1.5 x ULN","TRANSHY",5,"HYLAW",0,0,null,null,null,null,null,null,"","Normal to Normal",1,"","",null],["CDISCPILOT01","1097","01-701-1097","Xanomeline Low Dose",54,"Xanomeline Low Dose",54,"2014-01-01","2014-07-09",68,"65-80",2,"WHITE",1,"M","Y","","Y","         Week 16",16,null,null,"",null,"DERIVED","Total Bili 1.5 x ULN and Transaminase 1.5 x ULN","HYLAW",6,"HYLAW",0,0,null,null,null,null,null,null,"","Normal to Normal",1,"","",null],["CDISCPILOT01","1097","01-701-1097","Xanomeline Low Dose",54,"Xanomeline Low Dose",54,"2014-01-01","2014-07-09",68,"65-80",2,"WHITE",1,"M","Y","","Y","         Week 20",20,141,"2014-05-21","WEEK 20",11,"","Alanine Aminotransferase (U/L)","ALT",1,"CHEM",11,16,6,43,1.83333333333,0.255813953488,2.66666666667,0.372093023256,"","",null,"R2A1HI > 1.5","N",0],["CDISCPILOT01","1097","01-701-1097","Xanomeline Low Dose",54,"Xanomeline Low Dose",54,"2014-01-01","2014-07-09",68,"65-80",2,"WHITE",1,"M","Y","","Y","         Week 20",20,141,"2014-05-21","WEEK 20",11,"","Aspartate Aminotransferase (U/L)","AST",2,"CHEM",16,19,11,36,1.45454545455,0.444444444444,1.72727272727,0.527777777778,"","",null,"R2A1HI > 1.5","N",0],["CDISCPILOT01","1097","01-701-1097","Xanomeline Low Dose",54,"Xanomeline Low Dose",54,"2014-01-01","2014-07-09",68,"65-80",2,"WHITE",1,"M","Y","","Y","         Week 20",20,141,"2014-05-21","WEEK 20",11,"","Bilirubin (umol/L)","BILI",3,"CHEM",5.13,6.84,3,21,1.71,0.244285714286,2.28,0.325714285714,"","",null,"R2A1HI > 1.5","N",0],["CDISCPILOT01","1097","01-701-1097","Xanomeline Low Dose",54,"Xanomeline Low Dose",54,"2014-01-01","2014-07-09",68,"65-80",2,"WHITE",1,"M","Y","","Y","         Week 20",20,null,null,"",null,"DERIVED","Bilirubin 1.5 x ULN","BILIHY",4,"HYLAW",0,0,null,null,null,null,null,null,"","Normal to Normal",1,"","",null],["CDISCPILOT01","1097","01-701-1097","Xanomeline Low Dose",54,"Xanomeline Low Dose",54,"2014-01-01","2014-07-09",68,"65-80",2,"WHITE",1,"M","Y","","Y","         Week 20",20,null,null,"",null,"DERIVED","Transaminase 1.5 x ULN","TRANSHY",5,"HYLAW",0,0,null,null,null,null,null,null,"","Normal to Normal",1,"","",null],["CDISCPILOT01","1097","01-701-1097","Xanomeline Low Dose",54,"Xanomeline Low Dose",54,"2014-01-01","2014-07-09",68,"65-80",2,"WHITE",1,"M","Y","","Y","         Week 20",20,null,null,"",null,"DERIVED","Total Bili 1.5 x ULN and Transaminase 1.5 x ULN","HYLAW",6,"HYLAW",0,0,null,null,null,null,null,null,"","Normal to Normal",1,"","",null],["CDISCPILOT01","1097","01-701-1097","Xanomeline Low Dose",54,"Xanomeline Low Dose",54,"2014-01-01","2014-07-09",68,"65-80",2,"WHITE",1,"M","Y","","Y","         Week 24",24,169,"2014-06-18","WEEK 24",12,"","Alanine Aminotransferase (U/L)","ALT",1,"CHEM",18,16,6,43,3,0.418604651163,2.66666666667,0.372093023256,"","",null,"R2A1HI > 1.5","N",0],["CDISCPILOT01","1097","01-701-1097","Xanomeline Low Dose",54,"Xanomeline Low Dose",54,"2014-01-01","2014-07-09",68,"65-80",2,"WHITE",1,"M","Y","","Y","         Week 24",24,169,"2014-06-18","WEEK 24",12,"","Aspartate Aminotransferase (U/L)","AST",2,"CHEM",20,19,11,36,1.81818181818,0.555555555556,1.72727272727,0.527777777778,"","",null,"R2A1HI > 1.5","N",0],["CDISCPILOT01","1097","01-701-1097","Xanomeline Low Dose",54,"Xanomeline Low Dose",54,"2014-01-01","2014-07-09",68,"65-80",2,"WHITE",1,"M","Y","","Y","         Week 24",24,169,"2014-06-18","WEEK 24",12,"","Bilirubin (umol/L)","BILI",3,"CHEM",10.26,6.84,3,21,3.42,0.488571428571,2.28,0.325714285714,"","",null,"R2A1HI > 1.5","N",0],["CDISCPILOT01","1097","01-701-1097","Xanomeline Low Dose",54,"Xanomeline Low Dose",54,"2014-01-01","2014-07-09",68,"65-80",2,"WHITE",1,"M","Y","","Y","         Week 24",24,null,null,"",null,"DERIVED","Bilirubin 1.5 x ULN","BILIHY",4,"HYLAW",0,0,null,null,null,null,null,null,"","Normal to Normal",1,"","",null],["CDISCPILOT01","1097","01-701-1097","Xanomeline Low Dose",54,"Xanomeline Low Dose",54,"2014-01-01","2014-07-09",68,"65-80",2,"WHITE",1,"M","Y","","Y","         Week 24",24,null,null,"",null,"DERIVED","Transaminase 1.5 x ULN","TRANSHY",5,"HYLAW",0,0,null,null,null,null,null,null,"","Normal to Normal",1,"","",null],["CDISCPILOT01","1097","01-701-1097","Xanomeline Low Dose",54,"Xanomeline Low Dose",54,"2014-01-01","2014-07-09",68,"65-80",2,"WHITE",1,"M","Y","","Y","         Week 24",24,null,null,"",null,"DERIVED","Total Bili 1.5 x ULN and Transaminase 1.5 x ULN","HYLAW",6,"HYLAW",0,0,null,null,null,null,null,null,"","Normal to Normal",1,"","",null],["CDISCPILOT01","1111","01-701-1111","Xanomeline Low Dose",54,"Xanomeline Low Dose",54,"2012-09-07","2012-09-16",81,">80",3,"WHITE",1,"F","N","Y","Y","        Baseline",0,-13,"2012-08-25","SCREENING 1",1,"","Alanine Aminotransferase (U/L)","ALT",1,"CHEM",23,23,6,32,3.83333333333,0.71875,3.83333333333,0.71875,"Y","",null,"R2A1HI > 1.5","N",0],["CDISCPILOT01","1111","01-701-1111","Xanomeline Low Dose",54,"Xanomeline Low Dose",54,"2012-09-07","2012-09-16",81,">80",3,"WHITE",1,"F","N","Y","Y","        Baseline",0,-13,"2012-08-25","SCREENING 1",1,"","Aspartate Aminotransferase (U/L)","AST",2,"CHEM",28,28,9,34,3.11111111111,0.823529411765,3.11111111111,0.823529411765,"Y","",null,"R2A1HI > 1.5","N",0],["CDISCPILOT01","1111","01-701-1111","Xanomeline Low Dose",54,"Xanomeline Low Dose",54,"2012-09-07","2012-09-16",81,">80",3,"WHITE",1,"F","N","Y","Y","        Baseline",0,-13,"2012-08-25","SCREENING 1",1,"","Bilirubin (umol/L)","BILI",3,"CHEM",6.84,6.84,3,21,2.28,0.325714285714,2.28,0.325714285714,"Y","",null,"R2A1HI > 1.5","N",0],["CDISCPILOT01","1111","01-701-1111","Xanomeline Low Dose",54,"Xanomeline Low Dose",54,"2012-09-07","2012-09-16",81,">80",3,"WHITE",1,"F","N","Y","Y","        Baseline",0,null,null,"",null,"DERIVED","Bilirubin 1.5 x ULN","BILIHY",4,"HYLAW",0,0,null,null,null,null,null,null,"Y","Normal to Normal",1,"","",null],["CDISCPILOT01","1111","01-701-1111","Xanomeline Low Dose",54,"Xanomeline Low Dose",54,"2012-09-07","2012-09-16",81,">80",3,"WHITE",1,"F","N","Y","Y","        Baseline",0,null,null,"",null,"DERIVED","Transaminase 1.5 x ULN","TRANSHY",5,"HYLAW",0,0,null,null,null,null,null,null,"Y","Normal to Normal",1,"","",null],["CDISCPILOT01","1111","01-701-1111","Xanomeline Low Dose",54,"Xanomeline Low Dose",54,"2012-09-07","2012-09-16",81,">80",3,"WHITE",1,"F","N","Y","Y","        Baseline",0,null,null,"",null,"DERIVED","Total Bili 1.5 x ULN and Transaminase 1.5 x ULN","HYLAW",6,"HYLAW",0,0,null,null,null,null,null,null,"Y","Normal to Normal",1,"","",null],["CDISCPILOT01","1111","01-701-1111","Xanomeline Low Dose",54,"Xanomeline Low Dose",54,"2012-09-07","2012-09-16",81,">80",3,"WHITE",1,"F","N","Y","Y","          Week 2",2,11,"2012-09-17","WEEK 2",4,"","Alanine Aminotransferase (U/L)","ALT",1,"CHEM",19,23,6,32,3.16666666667,0.59375,3.83333333333,0.71875,"","",null,"R2A1HI > 1.5","N",0],["CDISCPILOT01","1111","01-701-1111","Xanomeline Low Dose",54,"Xanomeline Low Dose",54,"2012-09-07","2012-09-16",81,">80",3,"WHITE",1,"F","N","Y","Y","          Week 2",2,11,"2012-09-17","WEEK 2",4,"","Aspartate Aminotransferase (U/L)","AST",2,"CHEM",23,28,9,34,2.55555555556,0.676470588235,3.11111111111,0.823529411765,"","",null,"R2A1HI > 1.5","N",0],["CDISCPILOT01","1111","01-701-1111","Xanomeline Low Dose",54,"Xanomeline Low Dose",54,"2012-09-07","2012-09-16",81,">80",3,"WHITE",1,"F","N","Y","Y","          Week 2",2,11,"2012-09-17","WEEK 2",4,"","Bilirubin (umol/L)","BILI",3,"CHEM",8.55,6.84,3,21,2.85,0.407142857143,2.28,0.325714285714,"","",null,"R2A1HI > 1.5","N",0],["CDISCPILOT01","1111","01-701-1111","Xanomeline Low Dose",54,"Xanomeline Low Dose",54,"2012-09-07","2012-09-16",81,">80",3,"WHITE",1,"F","N","Y","Y","          Week 2",2,null,null,"",null,"DERIVED","Bilirubin 1.5 x ULN","BILIHY",4,"HYLAW",0,0,null,null,null,null,null,null,"","Normal to Normal",1,"","",null],["CDISCPILOT01","1111","01-701-1111","Xanomeline Low Dose",54,"Xanomeline Low Dose",54,"2012-09-07","2012-09-16",81,">80",3,"WHITE",1,"F","N","Y","Y","          Week 2",2,null,null,"",null,"DERIVED","Transaminase 1.5 x ULN","TRANSHY",5,"HYLAW",0,0,null,null,null,null,null,null,"","Normal to Normal",1,"","",null],["CDISCPILOT01","1111","01-701-1111","Xanomeline Low Dose",54,"Xanomeline Low Dose",54,"2012-09-07","2012-09-16",81,">80",3,"WHITE",1,"F","N","Y","Y","          Week 2",2,null,null,"",null,"DERIVED","Total Bili 1.5 x ULN and Transaminase 1.5 x ULN","HYLAW",6,"HYLAW",0,0,null,null,null,null,null,null,"","Normal to Normal",1,"","",null],["CDISCPILOT01","1115","01-701-1115","Xanomeline Low Dose",54,"Xanomeline Low Dose",54,"2012-11-30","2013-01-23",84,">80",3,"WHITE",1,"M","N","Y","Y","        Baseline",0,-7,"2012-11-23","SCREENING 1",1,"","Alanine Aminotransferase (U/L)","ALT",1,"CHEM",18,18,6,35,3,0.514285714286,3,0.514285714286,"Y","",null,"R2A1HI > 1.5","N",0],["CDISCPILOT01","1115","01-701-1115","Xanomeline Low Dose",54,"Xanomeline Low Dose",54,"2012-11-30","2013-01-23",84,">80",3,"WHITE",1,"M","N","Y","Y","        Baseline",0,-7,"2012-11-23","SCREENING 1",1,"","Aspartate Aminotransferase (U/L)","AST",2,"CHEM",26,26,11,36,2.36363636364,0.722222222222,2.36363636364,0.722222222222,"Y","",null,"R2A1HI > 1.5","N",0],["CDISCPILOT01","1115","01-701-1115","Xanomeline Low Dose",54,"Xanomeline Low Dose",54,"2012-11-30","2013-01-23",84,">80",3,"WHITE",1,"M","N","Y","Y","        Baseline",0,-7,"2012-11-23","SCREENING 1",1,"","Bilirubin (umol/L)","BILI",3,"CHEM",8.55,8.55,3,21,2.85,0.407142857143,2.85,0.407142857143,"Y","",null,"R2A1HI > 1.5","N",0],["CDISCPILOT01","1115","01-701-1115","Xanomeline Low Dose",54,"Xanomeline Low Dose",54,"2012-11-30","2013-01-23",84,">80",3,"WHITE",1,"M","N","Y","Y","        Baseline",0,null,null,"",null,"DERIVED","Bilirubin 1.5 x ULN","BILIHY",4,"HYLAW",0,0,null,null,null,null,null,null,"Y","Normal to Normal",1,"","",null],["CDISCPILOT01","1115","01-701-1115","Xanomeline Low Dose",54,"Xanomeline Low Dose",54,"2012-11-30","2013-01-23",84,">80",3,"WHITE",1,"M","N","Y","Y","        Baseline",0,null,null,"",null,"DERIVED","Transaminase 1.5 x ULN","TRANSHY",5,"HYLAW",0,0,null,null,null,null,null,null,"Y","Normal to Normal",1,"","",null],["CDISCPILOT01","1115","01-701-1115","Xanomeline Low Dose",54,"Xanomeline Low Dose",54,"2012-11-30","2013-01-23",84,">80",3,"WHITE",1,"M","N","Y","Y","        Baseline",0,null,null,"",null,"DERIVED","Total Bili 1.5 x ULN and Transaminase 1.5 x ULN","HYLAW",6,"HYLAW",0,0,null,null,null,null,null,null,"Y","Normal to Normal",1,"","",null],["CDISCPILOT01","1115","01-701-1115","Xanomeline Low Dose",54,"Xanomeline Low Dose",54,"2012-11-30","2013-01-23",84,">80",3,"WHITE",1,"M","N","Y","Y","          Week 2",2,14,"2012-12-13","WEEK 2",4,"","Alanine Aminotransferase (U/L)","ALT",1,"CHEM",15,18,6,35,2.5,0.428571428571,3,0.514285714286,"","",null,"R2A1HI > 1.5","N",0],["CDISCPILOT01","1115","01-701-1115","Xanomeline Low Dose",54,"Xanomeline Low Dose",54,"2012-11-30","2013-01-23",84,">80",3,"WHITE",1,"M","N","Y","Y","          Week 2",2,14,"2012-12-13","WEEK 2",4,"","Aspartate Aminotransferase (U/L)","AST",2,"CHEM",25,26,11,36,2.27272727273,0.694444444444,2.36363636364,0.722222222222,"","",null,"R2A1HI > 1.5","N",0],["CDISCPILOT01","1115","01-701-1115","Xanomeline Low Dose",54,"Xanomeline Low Dose",54,"2012-11-30","2013-01-23",84,">80",3,"WHITE",1,"M","N","Y","Y","          Week 2",2,14,"2012-12-13","WEEK 2",4,"","Bilirubin (umol/L)","BILI",3,"CHEM",6.84,8.55,3,21,2.28,0.325714285714,2.85,0.407142857143,"","",null,"R2A1HI > 1.5","N",0],["CDISCPILOT01","1115","01-701-1115","Xanomeline Low Dose",54,"Xanomeline Low Dose",54,"2012-11-30","2013-01-23",84,">80",3,"WHITE",1,"M","N","Y","Y","          Week 2",2,null,null,"",null,"DERIVED","Bilirubin 1.5 x ULN","BILIHY",4,"HYLAW",0,0,null,null,null,null,null,null,"","Normal to Normal",1,"","",null],["CDISCPILOT01","1115","01-701-1115","Xanomeline Low Dose",54,"Xanomeline Low Dose",54,"2012-11-30","2013-01-23",84,">80",3,"WHITE",1,"M","N","Y","Y","          Week 2",2,null,null,"",null,"DERIVED","Transaminase 1.5 x ULN","TRANSHY",5,"HYLAW",0,0,null,null,null,null,null,null,"","Normal to Normal",1,"","",null],["CDISCPILOT01","1115","01-701-1115","Xanomeline Low Dose",54,"Xanomeline Low Dose",54,"2012-11-30","2013-01-23",84,">80",3,"WHITE",1,"M","N","Y","Y","          Week 2",2,null,null,"",null,"DERIVED","Total Bili 1.5 x ULN and Transaminase 1.5 x ULN","HYLAW",6,"HYLAW",0,0,null,null,null,null,null,null,"","Normal to Normal",1,"","",null],["CDISCPILOT01","1115","01-701-1115","Xanomeline Low Dose",54,"Xanomeline Low Dose",54,"2012-11-30","2013-01-23",84,">80",3,"WHITE",1,"M","N","Y","Y","          Week 4",4,27,"2012-12-26","WEEK 4",5,"","Alanine Aminotransferase (U/L)","ALT",1,"CHEM",13,18,6,35,2.16666666667,0.371428571429,3,0.514285714286,"","",null,"R2A1HI > 1.5","N",0],["CDISCPILOT01","1115","01-701-1115","Xanomeline Low Dose",54,"Xanomeline Low Dose",54,"2012-11-30","2013-01-23",84,">80",3,"WHITE",1,"M","N","Y","Y","          Week 4",4,27,"2012-12-26","WEEK 4",5,"","Aspartate Aminotransferase (U/L)","AST",2,"CHEM",20,26,11,36,1.81818181818,0.555555555556,2.36363636364,0.722222222222,"","",null,"R2A1HI > 1.5","N",0],["CDISCPILOT01","1115","01-701-1115","Xanomeline Low Dose",54,"Xanomeline Low Dose",54,"2012-11-30","2013-01-23",84,">80",3,"WHITE",1,"M","N","Y","Y","          Week 4",4,27,"2012-12-26","WEEK 4",5,"","Bilirubin (umol/L)","BILI",3,"CHEM",6.84,8.55,3,21,2.28,0.325714285714,2.85,0.407142857143,"","",null,"R2A1HI > 1.5","N",0],["CDISCPILOT01","1115","01-701-1115","Xanomeline Low Dose",54,"Xanomeline Low Dose",54,"2012-11-30","2013-01-23",84,">80",3,"WHITE",1,"M","N","Y","Y","          Week 4",4,null,null,"",null,"DERIVED","Bilirubin 1.5 x ULN","BILIHY",4,"HYLAW",0,0,null,null,null,null,null,null,"","Normal to Normal",1,"","",null],["CDISCPILOT01","1115","01-701-1115","Xanomeline Low Dose",54,"Xanomeline Low Dose",54,"2012-11-30","2013-01-23",84,">80",3,"WHITE",1,"M","N","Y","Y","          Week 4",4,null,null,"",null,"DERIVED","Transaminase 1.5 x ULN","TRANSHY",5,"HYLAW",0,0,null,null,null,null,null,null,"","Normal to Normal",1,"","",null],["CDISCPILOT01","1115","01-701-1115","Xanomeline Low Dose",54,"Xanomeline Low Dose",54,"2012-11-30","2013-01-23",84,">80",3,"WHITE",1,"M","N","Y","Y","          Week 4",4,null,null,"",null,"DERIVED","Total Bili 1.5 x ULN and Transaminase 1.5 x ULN","HYLAW",6,"HYLAW",0,0,null,null,null,null,null,null,"","Normal to Normal",1,"","",null],["CDISCPILOT01","1115","01-701-1115","Xanomeline Low Dose",54,"Xanomeline Low Dose",54,"2012-11-30","2013-01-23",84,">80",3,"WHITE",1,"M","N","Y","Y","          Week 6",6,42,"2013-01-10","WEEK 6",7,"","Alanine Aminotransferase (U/L)","ALT",1,"CHEM",18,18,6,35,3,0.514285714286,3,0.514285714286,"","",null,"R2A1HI > 1.5","N",0],["CDISCPILOT01","1115","01-701-1115","Xanomeline Low Dose",54,"Xanomeline Low Dose",54,"2012-11-30","2013-01-23",84,">80",3,"WHITE",1,"M","N","Y","Y","          Week 6",6,42,"2013-01-10","WEEK 6",7,"","Aspartate Aminotransferase (U/L)","AST",2,"CHEM",25,26,11,36,2.27272727273,0.694444444444,2.36363636364,0.722222222222,"","",null,"R2A1HI > 1.5","N",0],["CDISCPILOT01","1115","01-701-1115","Xanomeline Low Dose",54,"Xanomeline Low Dose",54,"2012-11-30","2013-01-23",84,">80",3,"WHITE",1,"M","N","Y","Y","          Week 6",6,42,"2013-01-10","WEEK 6",7,"","Bilirubin (umol/L)","BILI",3,"CHEM",6.84,8.55,3,21,2.28,0.325714285714,2.85,0.407142857143,"","",null,"R2A1HI > 1.5","N",0],["CDISCPILOT01","1115","01-701-1115","Xanomeline Low Dose",54,"Xanomeline Low Dose",54,"2012-11-30","2013-01-23",84,">80",3,"WHITE",1,"M","N","Y","Y","          Week 6",6,null,null,"",null,"DERIVED","Bilirubin 1.5 x ULN","BILIHY",4,"HYLAW",0,0,null,null,null,null,null,null,"","Normal to Normal",1,"","",null],["CDISCPILOT01","1115","01-701-1115","Xanomeline Low Dose",54,"Xanomeline Low Dose",54,"2012-11-30","2013-01-23",84,">80",3,"WHITE",1,"M","N","Y","Y","          Week 6",6,null,null,"",null,"DERIVED","Transaminase 1.5 x ULN","TRANSHY",5,"HYLAW",0,0,null,null,null,null,null,null,"","Normal to Normal",1,"","",null],["CDISCPILOT01","1115","01-701-1115","Xanomeline Low Dose",54,"Xanomeline Low Dose",54,"2012-11-30","2013-01-23",84,">80",3,"WHITE",1,"M","N","Y","Y","          Week 6",6,null,null,"",null,"DERIVED","Total Bili 1.5 x ULN and Transaminase 1.5 x ULN","HYLAW",6,"HYLAW",0,0,null,null,null,null,null,null,"","Normal to Normal",1,"","",null],["CDISCPILOT01","1115","01-701-1115","Xanomeline Low Dose",54,"Xanomeline Low Dose",54,"2012-11-30","2013-01-23",84,">80",3,"WHITE",1,"M","N","Y","Y","          Week 8",8,55,"2013-01-23","WEEK 8",8,"","Alanine Aminotransferase (U/L)","ALT",1,"CHEM",16,18,6,35,2.66666666667,0.457142857143,3,0.514285714286,"","",null,"R2A1HI > 1.5","N",0],["CDISCPILOT01","1115","01-701-1115","Xanomeline Low Dose",54,"Xanomeline Low Dose",54,"2012-11-30","2013-01-23",84,">80",3,"WHITE",1,"M","N","Y","Y","          Week 8",8,55,"2013-01-23","WEEK 8",8,"","Aspartate Aminotransferase (U/L)","AST",2,"CHEM",25,26,11,36,2.27272727273,0.694444444444,2.36363636364,0.722222222222,"","",null,"R2A1HI > 1.5","N",0],["CDISCPILOT01","1115","01-701-1115","Xanomeline Low Dose",54,"Xanomeline Low Dose",54,"2012-11-30","2013-01-23",84,">80",3,"WHITE",1,"M","N","Y","Y","          Week 8",8,55,"2013-01-23","WEEK 8",8,"","Bilirubin (umol/L)","BILI",3,"CHEM",8.55,8.55,3,21,2.85,0.407142857143,2.85,0.407142857143,"","",null,"R2A1HI > 1.5","N",0],["CDISCPILOT01","1115","01-701-1115","Xanomeline Low Dose",54,"Xanomeline Low Dose",54,"2012-11-30","2013-01-23",84,">80",3,"WHITE",1,"M","N","Y","Y","          Week 8",8,null,null,"",null,"DERIVED","Bilirubin 1.5 x ULN","BILIHY",4,"HYLAW",0,0,null,null,null,null,null,null,"","Normal to Normal",1,"","",null],["CDISCPILOT01","1115","01-701-1115","Xanomeline Low Dose",54,"Xanomeline Low Dose",54,"2012-11-30","2013-01-23",84,">80",3,"WHITE",1,"M","N","Y","Y","          Week 8",8,null,null,"",null,"DERIVED","Transaminase 1.5 x ULN","TRANSHY",5,"HYLAW",0,0,null,null,null,null,null,null,"","Normal to Normal",1,"","",null],["CDISCPILOT01","1115","01-701-1115","Xanomeline Low Dose",54,"Xanomeline Low Dose",54,"2012-11-30","2013-01-23",84,">80",3,"WHITE",1,"M","N","Y","Y","          Week 8",8,null,null,"",null,"DERIVED","Total Bili 1.5 x ULN and Transaminase 1.5 x ULN","HYLAW",6,"HYLAW",0,0,null,null,null,null,null,null,"","Normal to Normal",1,"","",null],["CDISCPILOT01","1118","01-701-1118","Placebo",0,"Placebo",0,"2014-03-12","2014-09-09",52,"<65",1,"WHITE",1,"M","Y","","Y","        Baseline",0,-13,"2014-02-27","SCREENING 1",1,"","Alanine Aminotransferase (U/L)","ALT",1,"CHEM",15,15,6,43,2.5,0.348837209302,2.5,0.348837209302,"Y","",null,"R2A1HI > 1.5","N",0],["CDISCPILOT01","1118","01-701-1118","Placebo",0,"Placebo",0,"2014-03-12","2014-09-09",52,"<65",1,"WHITE",1,"M","Y","","Y","        Baseline",0,-13,"2014-02-27","SCREENING 1",1,"","Aspartate Aminotransferase (U/L)","AST",2,"CHEM",15,15,11,36,1.36363636364,0.416666666667,1.36363636364,0.416666666667,"Y","",null,"R2A1HI > 1.5","N",0],["CDISCPILOT01","1118","01-701-1118","Placebo",0,"Placebo",0,"2014-03-12","2014-09-09",52,"<65",1,"WHITE",1,"M","Y","","Y","        Baseline",0,-13,"2014-02-27","SCREENING 1",1,"","Bilirubin (umol/L)","BILI",3,"CHEM",11.97,11.97,3,21,3.99,0.57,3.99,0.57,"Y","",null,"R2A1HI > 1.5","N",0],["CDISCPILOT01","1118","01-701-1118","Placebo",0,"Placebo",0,"2014-03-12","2014-09-09",52,"<65",1,"WHITE",1,"M","Y","","Y","        Baseline",0,null,null,"",null,"DERIVED","Bilirubin 1.5 x ULN","BILIHY",4,"HYLAW",0,0,null,null,null,null,null,null,"Y","Normal to Normal",1,"","",null],["CDISCPILOT01","1118","01-701-1118","Placebo",0,"Placebo",0,"2014-03-12","2014-09-09",52,"<65",1,"WHITE",1,"M","Y","","Y","        Baseline",0,null,null,"",null,"DERIVED","Transaminase 1.5 x ULN","TRANSHY",5,"HYLAW",0,0,null,null,null,null,null,null,"Y","Normal to Normal",1,"","",null],["CDISCPILOT01","1118","01-701-1118","Placebo",0,"Placebo",0,"2014-03-12","2014-09-09",52,"<65",1,"WHITE",1,"M","Y","","Y","        Baseline",0,null,null,"",null,"DERIVED","Total Bili 1.5 x ULN and Transaminase 1.5 x ULN","HYLAW",6,"HYLAW",0,0,null,null,null,null,null,null,"Y","Normal to Normal",1,"","",null],["CDISCPILOT01","1118","01-701-1118","Placebo",0,"Placebo",0,"2014-03-12","2014-09-09",52,"<65",1,"WHITE",1,"M","Y","","Y","          Week 2",2,15,"2014-03-26","WEEK 2",4,"","Alanine Aminotransferase (U/L)","ALT",1,"CHEM",7,15,6,43,1.16666666667,0.162790697674,2.5,0.348837209302,"","",null,"R2A1HI > 1.5","N",0],["CDISCPILOT01","1118","01-701-1118","Placebo",0,"Placebo",0,"2014-03-12","2014-09-09",52,"<65",1,"WHITE",1,"M","Y","","Y","          Week 2",2,15,"2014-03-26","WEEK 2",4,"","Aspartate Aminotransferase (U/L)","AST",2,"CHEM",13,15,11,36,1.18181818182,0.361111111111,1.36363636364,0.416666666667,"","",null,"R2A1HI > 1.5","N",0],["CDISCPILOT01","1118","01-701-1118","Placebo",0,"Placebo",0,"2014-03-12","2014-09-09",52,"<65",1,"WHITE",1,"M","Y","","Y","          Week 2",2,15,"2014-03-26","WEEK 2",4,"","Bilirubin (umol/L)","BILI",3,"CHEM",8.55,11.97,3,21,2.85,0.407142857143,3.99,0.57,"","",null,"R2A1HI > 1.5","N",0],["CDISCPILOT01","1118","01-701-1118","Placebo",0,"Placebo",0,"2014-03-12","2014-09-09",52,"<65",1,"WHITE",1,"M","Y","","Y","          Week 2",2,null,null,"",null,"DERIVED","Bilirubin 1.5 x ULN","BILIHY",4,"HYLAW",0,0,null,null,null,null,null,null,"","Normal to Normal",1,"","",null],["CDISCPILOT01","1118","01-701-1118","Placebo",0,"Placebo",0,"2014-03-12","2014-09-09",52,"<65",1,"WHITE",1,"M","Y","","Y","          Week 2",2,null,null,"",null,"DERIVED","Transaminase 1.5 x ULN","TRANSHY",5,"HYLAW",0,0,null,null,null,null,null,null,"","Normal to Normal",1,"","",null],["CDISCPILOT01","1118","01-701-1118","Placebo",0,"Placebo",0,"2014-03-12","2014-09-09",52,"<65",1,"WHITE",1,"M","Y","","Y","          Week 2",2,null,null,"",null,"DERIVED","Total Bili 1.5 x ULN and Transaminase 1.5 x ULN","HYLAW",6,"HYLAW",0,0,null,null,null,null,null,null,"","Normal to Normal",1,"","",null],["CDISCPILOT01","1118","01-701-1118","Placebo",0,"Placebo",0,"2014-03-12","2014-09-09",52,"<65",1,"WHITE",1,"M","Y","","Y","          Week 4",4,29,"2014-04-09","WEEK 4",5,"","Alanine Aminotransferase (U/L)","ALT",1,"CHEM",15,15,6,43,2.5,0.348837209302,2.5,0.348837209302,"","",null,"R2A1HI > 1.5","N",0],["CDISCPILOT01","1118","01-701-1118","Placebo",0,"Placebo",0,"2014-03-12","2014-09-09",52,"<65",1,"WHITE",1,"M","Y","","Y","          Week 4",4,29,"2014-04-09","WEEK 4",5,"","Aspartate Aminotransferase (U/L)","AST",2,"CHEM",14,15,11,36,1.27272727273,0.388888888889,1.36363636364,0.416666666667,"","",null,"R2A1HI > 1.5","N",0],["CDISCPILOT01","1118","01-701-1118","Placebo",0,"Placebo",0,"2014-03-12","2014-09-09",52,"<65",1,"WHITE",1,"M","Y","","Y","          Week 4",4,29,"2014-04-09","WEEK 4",5,"","Bilirubin (umol/L)","BILI",3,"CHEM",10.26,11.97,3,21,3.42,0.488571428571,3.99,0.57,"","",null,"R2A1HI > 1.5","N",0],["CDISCPILOT01","1118","01-701-1118","Placebo",0,"Placebo",0,"2014-03-12","2014-09-09",52,"<65",1,"WHITE",1,"M","Y","","Y","          Week 4",4,null,null,"",null,"DERIVED","Bilirubin 1.5 x ULN","BILIHY",4,"HYLAW",0,0,null,null,null,null,null,null,"","Normal to Normal",1,"","",null],["CDISCPILOT01","1118","01-701-1118","Placebo",0,"Placebo",0,"2014-03-12","2014-09-09",52,"<65",1,"WHITE",1,"M","Y","","Y","          Week 4",4,null,null,"",null,"DERIVED","Transaminase 1.5 x ULN","TRANSHY",5,"HYLAW",0,0,null,null,null,null,null,null,"","Normal to Normal",1,"","",null],["CDISCPILOT01","1118","01-701-1118","Placebo",0,"Placebo",0,"2014-03-12","2014-09-09",52,"<65",1,"WHITE",1,"M","Y","","Y","          Week 4",4,null,null,"",null,"DERIVED","Total Bili 1.5 x ULN and Transaminase 1.5 x ULN","HYLAW",6,"HYLAW",0,0,null,null,null,null,null,null,"","Normal to Normal",1,"","",null],["CDISCPILOT01","1118","01-701-1118","Placebo",0,"Placebo",0,"2014-03-12","2014-09-09",52,"<65",1,"WHITE",1,"M","Y","","Y","          Week 6",6,43,"2014-04-23","WEEK 6",7,"","Alanine Aminotransferase (U/L)","ALT",1,"CHEM",11,15,6,43,1.83333333333,0.255813953488,2.5,0.348837209302,"","",null,"R2A1HI > 1.5","N",0],["CDISCPILOT01","1118","01-701-1118","Placebo",0,"Placebo",0,"2014-03-12","2014-09-09",52,"<65",1,"WHITE",1,"M","Y","","Y","          Week 6",6,43,"2014-04-23","WEEK 6",7,"","Aspartate Aminotransferase (U/L)","AST",2,"CHEM",15,15,11,36,1.36363636364,0.416666666667,1.36363636364,0.416666666667,"","",null,"R2A1HI > 1.5","N",0],["CDISCPILOT01","1118","01-701-1118","Placebo",0,"Placebo",0,"2014-03-12","2014-09-09",52,"<65",1,"WHITE",1,"M","Y","","Y","          Week 6",6,43,"2014-04-23","WEEK 6",7,"","Bilirubin (umol/L)","BILI",3,"CHEM",8.55,11.97,3,21,2.85,0.407142857143,3.99,0.57,"","",null,"R2A1HI > 1.5","N",0],["CDISCPILOT01","1118","01-701-1118","Placebo",0,"Placebo",0,"2014-03-12","2014-09-09",52,"<65",1,"WHITE",1,"M","Y","","Y","          Week 6",6,null,null,"",null,"DERIVED","Bilirubin 1.5 x ULN","BILIHY",4,"HYLAW",0,0,null,null,null,null,null,null,"","Normal to Normal",1,"","",null],["CDISCPILOT01","1118","01-701-1118","Placebo",0,"Placebo",0,"2014-03-12","2014-09-09",52,"<65",1,"WHITE",1,"M","Y","","Y","          Week 6",6,null,null,"",null,"DERIVED","Transaminase 1.5 x ULN","TRANSHY",5,"HYLAW",0,0,null,null,null,null,null,null,"","Normal to Normal",1,"","",null],["CDISCPILOT01","1118","01-701-1118","Placebo",0,"Placebo",0,"2014-03-12","2014-09-09",52,"<65",1,"WHITE",1,"M","Y","","Y","          Week 6",6,null,null,"",null,"DERIVED","Total Bili 1.5 x ULN and Transaminase 1.5 x ULN","HYLAW",6,"HYLAW",0,0,null,null,null,null,null,null,"","Normal to Normal",1,"","",null],["CDISCPILOT01","1118","01-701-1118","Placebo",0,"Placebo",0,"2014-03-12","2014-09-09",52,"<65",1,"WHITE",1,"M","Y","","Y","          Week 8",8,58,"2014-05-08","WEEK 8",8,"","Alanine Aminotransferase (U/L)","ALT",1,"CHEM",15,15,6,43,2.5,0.348837209302,2.5,0.348837209302,"","",null,"R2A1HI > 1.5","N",0],["CDISCPILOT01","1118","01-701-1118","Placebo",0,"Placebo",0,"2014-03-12","2014-09-09",52,"<65",1,"WHITE",1,"M","Y","","Y","          Week 8",8,58,"2014-05-08","WEEK 8",8,"","Aspartate Aminotransferase (U/L)","AST",2,"CHEM",18,15,11,36,1.63636363636,0.5,1.36363636364,0.416666666667,"","",null,"R2A1HI > 1.5","N",0],["CDISCPILOT01","1118","01-701-1118","Placebo",0,"Placebo",0,"2014-03-12","2014-09-09",52,"<65",1,"WHITE",1,"M","Y","","Y","          Week 8",8,58,"2014-05-08","WEEK 8",8,"","Bilirubin (umol/L)","BILI",3,"CHEM",10.26,11.97,3,21,3.42,0.488571428571,3.99,0.57,"","",null,"R2A1HI > 1.5","N",0],["CDISCPILOT01","1118","01-701-1118","Placebo",0,"Placebo",0,"2014-03-12","2014-09-09",52,"<65",1,"WHITE",1,"M","Y","","Y","          Week 8",8,null,null,"",null,"DERIVED","Bilirubin 1.5 x ULN","BILIHY",4,"HYLAW",0,0,null,null,null,null,null,null,"","Normal to Normal",1,"","",null],["CDISCPILOT01","1118","01-701-1118","Placebo",0,"Placebo",0,"2014-03-12","2014-09-09",52,"<65",1,"WHITE",1,"M","Y","","Y","          Week 8",8,null,null,"",null,"DERIVED","Transaminase 1.5 x ULN","TRANSHY",5,"HYLAW",0,0,null,null,null,null,null,null,"","Normal to Normal",1,"","",null],["CDISCPILOT01","1118","01-701-1118","Placebo",0,"Placebo",0,"2014-03-12","2014-09-09",52,"<65",1,"WHITE",1,"M","Y","","Y","          Week 8",8,null,null,"",null,"DERIVED","Total Bili 1.5 x ULN and Transaminase 1.5 x ULN","HYLAW",6,"HYLAW",0,0,null,null,null,null,null,null,"","Normal to Normal",1,"","",null],["CDISCPILOT01","1118","01-701-1118","Placebo",0,"Placebo",0,"2014-03-12","2014-09-09",52,"<65",1,"WHITE",1,"M","Y","","Y","         Week 12",12,86,"2014-06-05","WEEK 12",9,"","Alanine Aminotransferase (U/L)","ALT",1,"CHEM",16,15,6,43,2.66666666667,0.372093023256,2.5,0.348837209302,"","",null,"R2A1HI > 1.5","N",0],["CDISCPILOT01","1118","01-701-1118","Placebo",0,"Placebo",0,"2014-03-12","2014-09-09",52,"<65",1,"WHITE",1,"M","Y","","Y","         Week 12",12,86,"2014-06-05","WEEK 12",9,"","Aspartate Aminotransferase (U/L)","AST",2,"CHEM",13,15,11,36,1.18181818182,0.361111111111,1.36363636364,0.416666666667,"","",null,"R2A1HI > 1.5","N",0],["CDISCPILOT01","1118","01-701-1118","Placebo",0,"Placebo",0,"2014-03-12","2014-09-09",52,"<65",1,"WHITE",1,"M","Y","","Y","         Week 12",12,86,"2014-06-05","WEEK 12",9,"","Bilirubin (umol/L)","BILI",3,"CHEM",8.55,11.97,3,21,2.85,0.407142857143,3.99,0.57,"","",null,"R2A1HI > 1.5","N",0],["CDISCPILOT01","1118","01-701-1118","Placebo",0,"Placebo",0,"2014-03-12","2014-09-09",52,"<65",1,"WHITE",1,"M","Y","","Y","         Week 12",12,null,null,"",null,"DERIVED","Bilirubin 1.5 x ULN","BILIHY",4,"HYLAW",0,0,null,null,null,null,null,null,"","Normal to Normal",1,"","",null],["CDISCPILOT01","1118","01-701-1118","Placebo",0,"Placebo",0,"2014-03-12","2014-09-09",52,"<65",1,"WHITE",1,"M","Y","","Y","         Week 12",12,null,null,"",null,"DERIVED","Transaminase 1.5 x ULN","TRANSHY",5,"HYLAW",0,0,null,null,null,null,null,null,"","Normal to Normal",1,"","",null],["CDISCPILOT01","1118","01-701-1118","Placebo",0,"Placebo",0,"2014-03-12","2014-09-09",52,"<65",1,"WHITE",1,"M","Y","","Y","         Week 12",12,null,null,"",null,"DERIVED","Total Bili 1.5 x ULN and Transaminase 1.5 x ULN","HYLAW",6,"HYLAW",0,0,null,null,null,null,null,null,"","Normal to Normal",1,"","",null],["CDISCPILOT01","1118","01-701-1118","Placebo",0,"Placebo",0,"2014-03-12","2014-09-09",52,"<65",1,"WHITE",1,"M","Y","","Y","         Week 16",16,113,"2014-07-02","WEEK 16",10,"","Alanine Aminotransferase (U/L)","ALT",1,"CHEM",15,15,6,43,2.5,0.348837209302,2.5,0.348837209302,"","",null,"R2A1HI > 1.5","N",0],["CDISCPILOT01","1118","01-701-1118","Placebo",0,"Placebo",0,"2014-03-12","2014-09-09",52,"<65",1,"WHITE",1,"M","Y","","Y","         Week 16",16,113,"2014-07-02","WEEK 16",10,"","Aspartate Aminotransferase (U/L)","AST",2,"CHEM",18,15,11,36,1.63636363636,0.5,1.36363636364,0.416666666667,"","",null,"R2A1HI > 1.5","N",0],["CDISCPILOT01","1118","01-701-1118","Placebo",0,"Placebo",0,"2014-03-12","2014-09-09",52,"<65",1,"WHITE",1,"M","Y","","Y","         Week 16",16,113,"2014-07-02","WEEK 16",10,"","Bilirubin (umol/L)","BILI",3,"CHEM",10.26,11.97,3,21,3.42,0.488571428571,3.99,0.57,"","",null,"R2A1HI > 1.5","N",0],["CDISCPILOT01","1118","01-701-1118","Placebo",0,"Placebo",0,"2014-03-12","2014-09-09",52,"<65",1,"WHITE",1,"M","Y","","Y","         Week 16",16,null,null,"",null,"DERIVED","Bilirubin 1.5 x ULN","BILIHY",4,"HYLAW",0,0,null,null,null,null,null,null,"","Normal to Normal",1,"","",null],["CDISCPILOT01","1118","01-701-1118","Placebo",0,"Placebo",0,"2014-03-12","2014-09-09",52,"<65",1,"WHITE",1,"M","Y","","Y","         Week 16",16,null,null,"",null,"DERIVED","Transaminase 1.5 x ULN","TRANSHY",5,"HYLAW",0,0,null,null,null,null,null,null,"","Normal to Normal",1,"","",null],["CDISCPILOT01","1118","01-701-1118","Placebo",0,"Placebo",0,"2014-03-12","2014-09-09",52,"<65",1,"WHITE",1,"M","Y","","Y","         Week 16",16,null,null,"",null,"DERIVED","Total Bili 1.5 x ULN and Transaminase 1.5 x ULN","HYLAW",6,"HYLAW",0,0,null,null,null,null,null,null,"","Normal to Normal",1,"","",null],["CDISCPILOT01","1118","01-701-1118","Placebo",0,"Placebo",0,"2014-03-12","2014-09-09",52,"<65",1,"WHITE",1,"M","Y","","Y","         Week 20",20,141,"2014-07-30","WEEK 20",11,"","Alanine Aminotransferase (U/L)","ALT",1,"CHEM",13,15,6,43,2.16666666667,0.302325581395,2.5,0.348837209302,"","",null,"R2A1HI > 1.5","N",0],["CDISCPILOT01","1118","01-701-1118","Placebo",0,"Placebo",0,"2014-03-12","2014-09-09",52,"<65",1,"WHITE",1,"M","Y","","Y","         Week 20",20,141,"2014-07-30","WEEK 20",11,"","Aspartate Aminotransferase (U/L)","AST",2,"CHEM",14,15,11,36,1.27272727273,0.388888888889,1.36363636364,0.416666666667,"","",null,"R2A1HI > 1.5","N",0],["CDISCPILOT01","1118","01-701-1118","Placebo",0,"Placebo",0,"2014-03-12","2014-09-09",52,"<65",1,"WHITE",1,"M","Y","","Y","         Week 20",20,141,"2014-07-30","WEEK 20",11,"","Bilirubin (umol/L)","BILI",3,"CHEM",10.26,11.97,3,21,3.42,0.488571428571,3.99,0.57,"","",null,"R2A1HI > 1.5","N",0],["CDISCPILOT01","1118","01-701-1118","Placebo",0,"Placebo",0,"2014-03-12","2014-09-09",52,"<65",1,"WHITE",1,"M","Y","","Y","         Week 20",20,null,null,"",null,"DERIVED","Bilirubin 1.5 x ULN","BILIHY",4,"HYLAW",0,0,null,null,null,null,null,null,"","Normal to Normal",1,"","",null],["CDISCPILOT01","1118","01-701-1118","Placebo",0,"Placebo",0,"2014-03-12","2014-09-09",52,"<65",1,"WHITE",1,"M","Y","","Y","         Week 20",20,null,null,"",null,"DERIVED","Transaminase 1.5 x ULN","TRANSHY",5,"HYLAW",0,0,null,null,null,null,null,null,"","Normal to Normal",1,"","",null],["CDISCPILOT01","1118","01-701-1118","Placebo",0,"Placebo",0,"2014-03-12","2014-09-09",52,"<65",1,"WHITE",1,"M","Y","","Y","         Week 20",20,null,null,"",null,"DERIVED","Total Bili 1.5 x ULN and Transaminase 1.5 x ULN","HYLAW",6,"HYLAW",0,0,null,null,null,null,null,null,"","Normal to Normal",1,"","",null],["CDISCPILOT01","1118","01-701-1118","Placebo",0,"Placebo",0,"2014-03-12","2014-09-09",52,"<65",1,"WHITE",1,"M","Y","","Y","         Week 24",24,169,"2014-08-27","WEEK 24",12,"","Alanine Aminotransferase (U/L)","ALT",1,"CHEM",13,15,6,43,2.16666666667,0.302325581395,2.5,0.348837209302,"","",null,"R2A1HI > 1.5","N",0],["CDISCPILOT01","1118","01-701-1118","Placebo",0,"Placebo",0,"2014-03-12","2014-09-09",52,"<65",1,"WHITE",1,"M","Y","","Y","         Week 24",24,169,"2014-08-27","WEEK 24",12,"","Aspartate Aminotransferase (U/L)","AST",2,"CHEM",11,15,11,36,1,0.305555555556,1.36363636364,0.416666666667,"","",null,"R2A1HI > 1.5","N",0],["CDISCPILOT01","1118","01-701-1118","Placebo",0,"Placebo",0,"2014-03-12","2014-09-09",52,"<65",1,"WHITE",1,"M","Y","","Y","         Week 24",24,169,"2014-08-27","WEEK 24",12,"","Bilirubin (umol/L)","BILI",3,"CHEM",8.55,11.97,3,21,2.85,0.407142857143,3.99,0.57,"","",null,"R2A1HI > 1.5","N",0],["CDISCPILOT01","1118","01-701-1118","Placebo",0,"Placebo",0,"2014-03-12","2014-09-09",52,"<65",1,"WHITE",1,"M","Y","","Y","         Week 24",24,null,null,"",null,"DERIVED","Bilirubin 1.5 x ULN","BILIHY",4,"HYLAW",0,0,null,null,null,null,null,null,"","Normal to Normal",1,"","",null],["CDISCPILOT01","1118","01-701-1118","Placebo",0,"Placebo",0,"2014-03-12","2014-09-09",52,"<65",1,"WHITE",1,"M","Y","","Y","         Week 24",24,null,null,"",null,"DERIVED","Transaminase 1.5 x ULN","TRANSHY",5,"HYLAW",0,0,null,null,null,null,null,null,"","Normal to Normal",1,"","",null],["CDISCPILOT01","1118","01-701-1118","Placebo",0,"Placebo",0,"2014-03-12","2014-09-09",52,"<65",1,"WHITE",1,"M","Y","","Y","         Week 24",24,null,null,"",null,"DERIVED","Total Bili 1.5 x ULN and Transaminase 1.5 x ULN","HYLAW",6,"HYLAW",0,0,null,null,null,null,null,null,"","Normal to Normal",1,"","",null],["CDISCPILOT01","1130","01-701-1130","Placebo",0,"Placebo",0,"2014-02-15","2014-08-16",84,">80",3,"WHITE",1,"M","Y","","Y","        Baseline",0,-6,"2014-02-09","SCREENING 1",1,"","Alanine Aminotransferase (U/L)","ALT",1,"CHEM",15,15,6,35,2.5,0.428571428571,2.5,0.428571428571,"Y","",null,"R2A1HI > 1.5","N",0],["CDISCPILOT01","1130","01-701-1130","Placebo",0,"Placebo",0,"2014-02-15","2014-08-16",84,">80",3,"WHITE",1,"M","Y","","Y","        Baseline",0,-6,"2014-02-09","SCREENING 1",1,"","Aspartate Aminotransferase (U/L)","AST",2,"CHEM",24,24,11,36,2.18181818182,0.666666666667,2.18181818182,0.666666666667,"Y","",null,"R2A1HI > 1.5","N",0],["CDISCPILOT01","1130","01-701-1130","Placebo",0,"Placebo",0,"2014-02-15","2014-08-16",84,">80",3,"WHITE",1,"M","Y","","Y","        Baseline",0,-6,"2014-02-09","SCREENING 1",1,"","Bilirubin (umol/L)","BILI",3,"CHEM",8.55,8.55,3,21,2.85,0.407142857143,2.85,0.407142857143,"Y","",null,"R2A1HI > 1.5","N",0],["CDISCPILOT01","1130","01-701-1130","Placebo",0,"Placebo",0,"2014-02-15","2014-08-16",84,">80",3,"WHITE",1,"M","Y","","Y","        Baseline",0,null,null,"",null,"DERIVED","Bilirubin 1.5 x ULN","BILIHY",4,"HYLAW",0,0,null,null,null,null,null,null,"Y","Normal to Normal",1,"","",null],["CDISCPILOT01","1130","01-701-1130","Placebo",0,"Placebo",0,"2014-02-15","2014-08-16",84,">80",3,"WHITE",1,"M","Y","","Y","        Baseline",0,null,null,"",null,"DERIVED","Transaminase 1.5 x ULN","TRANSHY",5,"HYLAW",0,0,null,null,null,null,null,null,"Y","Normal to Normal",1,"","",null],["CDISCPILOT01","1130","01-701-1130","Placebo",0,"Placebo",0,"2014-02-15","2014-08-16",84,">80",3,"WHITE",1,"M","Y","","Y","        Baseline",0,null,null,"",null,"DERIVED","Total Bili 1.5 x ULN and Transaminase 1.5 x ULN","HYLAW",6,"HYLAW",0,0,null,null,null,null,null,null,"Y","Normal to Normal",1,"","",null],["CDISCPILOT01","1130","01-701-1130","Placebo",0,"Placebo",0,"2014-02-15","2014-08-16",84,">80",3,"WHITE",1,"M","Y","","Y","          Week 2",2,15,"2014-03-01","WEEK 2",4,"","Alanine Aminotransferase (U/L)","ALT",1,"CHEM",14,15,6,35,2.33333333333,0.4,2.5,0.428571428571,"","",null,"R2A1HI > 1.5","N",0],["CDISCPILOT01","1130","01-701-1130","Placebo",0,"Placebo",0,"2014-02-15","2014-08-16",84,">80",3,"WHITE",1,"M","Y","","Y","          Week 2",2,15,"2014-03-01","WEEK 2",4,"","Aspartate Aminotransferase (U/L)","AST",2,"CHEM",26,24,11,36,2.36363636364,0.722222222222,2.18181818182,0.666666666667,"","",null,"R2A1HI > 1.5","N",0],["CDISCPILOT01","1130","01-701-1130","Placebo",0,"Placebo",0,"2014-02-15","2014-08-16",84,">80",3,"WHITE",1,"M","Y","","Y","          Week 2",2,15,"2014-03-01","WEEK 2",4,"","Bilirubin (umol/L)","BILI",3,"CHEM",10.26,8.55,3,21,3.42,0.488571428571,2.85,0.407142857143,"","",null,"R2A1HI > 1.5","N",0],["CDISCPILOT01","1130","01-701-1130","Placebo",0,"Placebo",0,"2014-02-15","2014-08-16",84,">80",3,"WHITE",1,"M","Y","","Y","          Week 2",2,null,null,"",null,"DERIVED","Bilirubin 1.5 x ULN","BILIHY",4,"HYLAW",0,0,null,null,null,null,null,null,"","Normal to Normal",1,"","",null],["CDISCPILOT01","1130","01-701-1130","Placebo",0,"Placebo",0,"2014-02-15","2014-08-16",84,">80",3,"WHITE",1,"M","Y","","Y","          Week 2",2,null,null,"",null,"DERIVED","Transaminase 1.5 x ULN","TRANSHY",5,"HYLAW",0,0,null,null,null,null,null,null,"","Normal to Normal",1,"","",null],["CDISCPILOT01","1130","01-701-1130","Placebo",0,"Placebo",0,"2014-02-15","2014-08-16",84,">80",3,"WHITE",1,"M","Y","","Y","          Week 2",2,null,null,"",null,"DERIVED","Total Bili 1.5 x ULN and Transaminase 1.5 x ULN","HYLAW",6,"HYLAW",0,0,null,null,null,null,null,null,"","Normal to Normal",1,"","",null],["CDISCPILOT01","1130","01-701-1130","Placebo",0,"Placebo",0,"2014-02-15","2014-08-16",84,">80",3,"WHITE",1,"M","Y","","Y","          Week 4",4,29,"2014-03-15","WEEK 4",5,"","Alanine Aminotransferase (U/L)","ALT",1,"CHEM",18,15,6,35,3,0.514285714286,2.5,0.428571428571,"","",null,"R2A1HI > 1.5","N",0],["CDISCPILOT01","1130","01-701-1130","Placebo",0,"Placebo",0,"2014-02-15","2014-08-16",84,">80",3,"WHITE",1,"M","Y","","Y","          Week 4",4,29,"2014-03-15","WEEK 4",5,"","Aspartate Aminotransferase (U/L)","AST",2,"CHEM",25,24,11,36,2.27272727273,0.694444444444,2.18181818182,0.666666666667,"","",null,"R2A1HI > 1.5","N",0],["CDISCPILOT01","1130","01-701-1130","Placebo",0,"Placebo",0,"2014-02-15","2014-08-16",84,">80",3,"WHITE",1,"M","Y","","Y","          Week 4",4,29,"2014-03-15","WEEK 4",5,"","Bilirubin (umol/L)","BILI",3,"CHEM",5.13,8.55,3,21,1.71,0.244285714286,2.85,0.407142857143,"","",null,"R2A1HI > 1.5","N",0],["CDISCPILOT01","1130","01-701-1130","Placebo",0,"Placebo",0,"2014-02-15","2014-08-16",84,">80",3,"WHITE",1,"M","Y","","Y","          Week 4",4,null,null,"",null,"DERIVED","Bilirubin 1.5 x ULN","BILIHY",4,"HYLAW",0,0,null,null,null,null,null,null,"","Normal to Normal",1,"","",null],["CDISCPILOT01","1130","01-701-1130","Placebo",0,"Placebo",0,"2014-02-15","2014-08-16",84,">80",3,"WHITE",1,"M","Y","","Y","          Week 4",4,null,null,"",null,"DERIVED","Transaminase 1.5 x ULN","TRANSHY",5,"HYLAW",0,0,null,null,null,null,null,null,"","Normal to Normal",1,"","",null],["CDISCPILOT01","1130","01-701-1130","Placebo",0,"Placebo",0,"2014-02-15","2014-08-16",84,">80",3,"WHITE",1,"M","Y","","Y","          Week 4",4,null,null,"",null,"DERIVED","Total Bili 1.5 x ULN and Transaminase 1.5 x ULN","HYLAW",6,"HYLAW",0,0,null,null,null,null,null,null,"","Normal to Normal",1,"","",null],["CDISCPILOT01","1130","01-701-1130","Placebo",0,"Placebo",0,"2014-02-15","2014-08-16",84,">80",3,"WHITE",1,"M","Y","","Y","          Week 6",6,43,"2014-03-29","WEEK 6",7,"","Alanine Aminotransferase (U/L)","ALT",1,"CHEM",13,15,6,35,2.16666666667,0.371428571429,2.5,0.428571428571,"","",null,"R2A1HI > 1.5","N",0],["CDISCPILOT01","1130","01-701-1130","Placebo",0,"Placebo",0,"2014-02-15","2014-08-16",84,">80",3,"WHITE",1,"M","Y","","Y","          Week 6",6,43,"2014-03-29","WEEK 6",7,"","Aspartate Aminotransferase (U/L)","AST",2,"CHEM",19,24,11,36,1.72727272727,0.527777777778,2.18181818182,0.666666666667,"","",null,"R2A1HI > 1.5","N",0],["CDISCPILOT01","1130","01-701-1130","Placebo",0,"Placebo",0,"2014-02-15","2014-08-16",84,">80",3,"WHITE",1,"M","Y","","Y","          Week 6",6,43,"2014-03-29","WEEK 6",7,"","Bilirubin (umol/L)","BILI",3,"CHEM",6.84,8.55,3,21,2.28,0.325714285714,2.85,0.407142857143,"","",null,"R2A1HI > 1.5","N",0],["CDISCPILOT01","1130","01-701-1130","Placebo",0,"Placebo",0,"2014-02-15","2014-08-16",84,">80",3,"WHITE",1,"M","Y","","Y","          Week 6",6,null,null,"",null,"DERIVED","Bilirubin 1.5 x ULN","BILIHY",4,"HYLAW",0,0,null,null,null,null,null,null,"","Normal to Normal",1,"","",null],["CDISCPILOT01","1130","01-701-1130","Placebo",0,"Placebo",0,"2014-02-15","2014-08-16",84,">80",3,"WHITE",1,"M","Y","","Y","          Week 6",6,null,null,"",null,"DERIVED","Transaminase 1.5 x ULN","TRANSHY",5,"HYLAW",0,0,null,null,null,null,null,null,"","Normal to Normal",1,"","",null],["CDISCPILOT01","1130","01-701-1130","Placebo",0,"Placebo",0,"2014-02-15","2014-08-16",84,">80",3,"WHITE",1,"M","Y","","Y","          Week 6",6,null,null,"",null,"DERIVED","Total Bili 1.5 x ULN and Transaminase 1.5 x ULN","HYLAW",6,"HYLAW",0,0,null,null,null,null,null,null,"","Normal to Normal",1,"","",null],["CDISCPILOT01","1130","01-701-1130","Placebo",0,"Placebo",0,"2014-02-15","2014-08-16",84,">80",3,"WHITE",1,"M","Y","","Y","          Week 8",8,57,"2014-04-12","WEEK 8",8,"","Alanine Aminotransferase (U/L)","ALT",1,"CHEM",10,15,6,35,1.66666666667,0.285714285714,2.5,0.428571428571,"","",null,"R2A1HI > 1.5","N",0],["CDISCPILOT01","1130","01-701-1130","Placebo",0,"Placebo",0,"2014-02-15","2014-08-16",84,">80",3,"WHITE",1,"M","Y","","Y","          Week 8",8,57,"2014-04-12","WEEK 8",8,"","Aspartate Aminotransferase (U/L)","AST",2,"CHEM",18,24,11,36,1.63636363636,0.5,2.18181818182,0.666666666667,"","",null,"R2A1HI > 1.5","N",0],["CDISCPILOT01","1130","01-701-1130","Placebo",0,"Placebo",0,"2014-02-15","2014-08-16",84,">80",3,"WHITE",1,"M","Y","","Y","          Week 8",8,57,"2014-04-12","WEEK 8",8,"","Bilirubin (umol/L)","BILI",3,"CHEM",10.26,8.55,3,21,3.42,0.488571428571,2.85,0.407142857143,"","",null,"R2A1HI > 1.5","N",0],["CDISCPILOT01","1130","01-701-1130","Placebo",0,"Placebo",0,"2014-02-15","2014-08-16",84,">80",3,"WHITE",1,"M","Y","","Y","          Week 8",8,null,null,"",null,"DERIVED","Bilirubin 1.5 x ULN","BILIHY",4,"HYLAW",0,0,null,null,null,null,null,null,"","Normal to Normal",1,"","",null],["CDISCPILOT01","1130","01-701-1130","Placebo",0,"Placebo",0,"2014-02-15","2014-08-16",84,">80",3,"WHITE",1,"M","Y","","Y","          Week 8",8,null,null,"",null,"DERIVED","Transaminase 1.5 x ULN","TRANSHY",5,"HYLAW",0,0,null,null,null,null,null,null,"","Normal to Normal",1,"","",null],["CDISCPILOT01","1130","01-701-1130","Placebo",0,"Placebo",0,"2014-02-15","2014-08-16",84,">80",3,"WHITE",1,"M","Y","","Y","          Week 8",8,null,null,"",null,"DERIVED","Total Bili 1.5 x ULN and Transaminase 1.5 x ULN","HYLAW",6,"HYLAW",0,0,null,null,null,null,null,null,"","Normal to Normal",1,"","",null],["CDISCPILOT01","1130","01-701-1130","Placebo",0,"Placebo",0,"2014-02-15","2014-08-16",84,">80",3,"WHITE",1,"M","Y","","Y","         Week 12",12,91,"2014-05-16","WEEK 12",9,"","Alanine Aminotransferase (U/L)","ALT",1,"CHEM",13,15,6,35,2.16666666667,0.371428571429,2.5,0.428571428571,"","",null,"R2A1HI > 1.5","N",0],["CDISCPILOT01","1130","01-701-1130","Placebo",0,"Placebo",0,"2014-02-15","2014-08-16",84,">80",3,"WHITE",1,"M","Y","","Y","         Week 12",12,91,"2014-05-16","WEEK 12",9,"","Aspartate Aminotransferase (U/L)","AST",2,"CHEM",21,24,11,36,1.90909090909,0.583333333333,2.18181818182,0.666666666667,"","",null,"R2A1HI > 1.5","N",0],["CDISCPILOT01","1130","01-701-1130","Placebo",0,"Placebo",0,"2014-02-15","2014-08-16",84,">80",3,"WHITE",1,"M","Y","","Y","         Week 12",12,91,"2014-05-16","WEEK 12",9,"","Bilirubin (umol/L)","BILI",3,"CHEM",8.55,8.55,3,21,2.85,0.407142857143,2.85,0.407142857143,"","",null,"R2A1HI > 1.5","N",0],["CDISCPILOT01","1130","01-701-1130","Placebo",0,"Placebo",0,"2014-02-15","2014-08-16",84,">80",3,"WHITE",1,"M","Y","","Y","         Week 12",12,null,null,"",null,"DERIVED","Bilirubin 1.5 x ULN","BILIHY",4,"HYLAW",0,0,null,null,null,null,null,null,"","Normal to Normal",1,"","",null],["CDISCPILOT01","1130","01-701-1130","Placebo",0,"Placebo",0,"2014-02-15","2014-08-16",84,">80",3,"WHITE",1,"M","Y","","Y","         Week 12",12,null,null,"",null,"DERIVED","Transaminase 1.5 x ULN","TRANSHY",5,"HYLAW",0,0,null,null,null,null,null,null,"","Normal to Normal",1,"","",null],["CDISCPILOT01","1130","01-701-1130","Placebo",0,"Placebo",0,"2014-02-15","2014-08-16",84,">80",3,"WHITE",1,"M","Y","","Y","         Week 12",12,null,null,"",null,"DERIVED","Total Bili 1.5 x ULN and Transaminase 1.5 x ULN","HYLAW",6,"HYLAW",0,0,null,null,null,null,null,null,"","Normal to Normal",1,"","",null],["CDISCPILOT01","1130","01-701-1130","Placebo",0,"Placebo",0,"2014-02-15","2014-08-16",84,">80",3,"WHITE",1,"M","Y","","Y","         Week 16",16,113,"2014-06-07","WEEK 16",10,"","Alanine Aminotransferase (U/L)","ALT",1,"CHEM",12,15,6,35,2,0.342857142857,2.5,0.428571428571,"","",null,"R2A1HI > 1.5","N",0],["CDISCPILOT01","1130","01-701-1130","Placebo",0,"Placebo",0,"2014-02-15","2014-08-16",84,">80",3,"WHITE",1,"M","Y","","Y","         Week 16",16,113,"2014-06-07","WEEK 16",10,"","Aspartate Aminotransferase (U/L)","AST",2,"CHEM",19,24,11,36,1.72727272727,0.527777777778,2.18181818182,0.666666666667,"","",null,"R2A1HI > 1.5","N",0],["CDISCPILOT01","1130","01-701-1130","Placebo",0,"Placebo",0,"2014-02-15","2014-08-16",84,">80",3,"WHITE",1,"M","Y","","Y","         Week 16",16,113,"2014-06-07","WEEK 16",10,"","Bilirubin (umol/L)","BILI",3,"CHEM",10.26,8.55,3,21,3.42,0.488571428571,2.85,0.407142857143,"","",null,"R2A1HI > 1.5","N",0],["CDISCPILOT01","1130","01-701-1130","Placebo",0,"Placebo",0,"2014-02-15","2014-08-16",84,">80",3,"WHITE",1,"M","Y","","Y","         Week 16",16,null,null,"",null,"DERIVED","Bilirubin 1.5 x ULN","BILIHY",4,"HYLAW",0,0,null,null,null,null,null,null,"","Normal to Normal",1,"","",null],["CDISCPILOT01","1130","01-701-1130","Placebo",0,"Placebo",0,"2014-02-15","2014-08-16",84,">80",3,"WHITE",1,"M","Y","","Y","         Week 16",16,null,null,"",null,"DERIVED","Transaminase 1.5 x ULN","TRANSHY",5,"HYLAW",0,0,null,null,null,null,null,null,"","Normal to Normal",1,"","",null],["CDISCPILOT01","1130","01-701-1130","Placebo",0,"Placebo",0,"2014-02-15","2014-08-16",84,">80",3,"WHITE",1,"M","Y","","Y","         Week 16",16,null,null,"",null,"DERIVED","Total Bili 1.5 x ULN and Transaminase 1.5 x ULN","HYLAW",6,"HYLAW",0,0,null,null,null,null,null,null,"","Normal to Normal",1,"","",null],["CDISCPILOT01","1130","01-701-1130","Placebo",0,"Placebo",0,"2014-02-15","2014-08-16",84,">80",3,"WHITE",1,"M","Y","","Y","         Week 20",20,138,"2014-07-02","WEEK 20",11,"","Alanine Aminotransferase (U/L)","ALT",1,"CHEM",11,15,6,35,1.83333333333,0.314285714286,2.5,0.428571428571,"","",null,"R2A1HI > 1.5","N",0],["CDISCPILOT01","1130","01-701-1130","Placebo",0,"Placebo",0,"2014-02-15","2014-08-16",84,">80",3,"WHITE",1,"M","Y","","Y","         Week 20",20,138,"2014-07-02","WEEK 20",11,"","Aspartate Aminotransferase (U/L)","AST",2,"CHEM",19,24,11,36,1.72727272727,0.527777777778,2.18181818182,0.666666666667,"","",null,"R2A1HI > 1.5","N",0],["CDISCPILOT01","1130","01-701-1130","Placebo",0,"Placebo",0,"2014-02-15","2014-08-16",84,">80",3,"WHITE",1,"M","Y","","Y","         Week 20",20,138,"2014-07-02","WEEK 20",11,"","Bilirubin (umol/L)","BILI",3,"CHEM",6.84,8.55,3,21,2.28,0.325714285714,2.85,0.407142857143,"","",null,"R2A1HI > 1.5","N",0],["CDISCPILOT01","1130","01-701-1130","Placebo",0,"Placebo",0,"2014-02-15","2014-08-16",84,">80",3,"WHITE",1,"M","Y","","Y","         Week 20",20,null,null,"",null,"DERIVED","Bilirubin 1.5 x ULN","BILIHY",4,"HYLAW",0,0,null,null,null,null,null,null,"","Normal to Normal",1,"","",null],["CDISCPILOT01","1130","01-701-1130","Placebo",0,"Placebo",0,"2014-02-15","2014-08-16",84,">80",3,"WHITE",1,"M","Y","","Y","         Week 20",20,null,null,"",null,"DERIVED","Transaminase 1.5 x ULN","TRANSHY",5,"HYLAW",0,0,null,null,null,null,null,null,"","Normal to Normal",1,"","",null],["CDISCPILOT01","1130","01-701-1130","Placebo",0,"Placebo",0,"2014-02-15","2014-08-16",84,">80",3,"WHITE",1,"M","Y","","Y","         Week 20",20,null,null,"",null,"DERIVED","Total Bili 1.5 x ULN and Transaminase 1.5 x ULN","HYLAW",6,"HYLAW",0,0,null,null,null,null,null,null,"","Normal to Normal",1,"","",null],["CDISCPILOT01","1130","01-701-1130","Placebo",0,"Placebo",0,"2014-02-15","2014-08-16",84,">80",3,"WHITE",1,"M","Y","","Y","         Week 24",24,169,"2014-08-02","WEEK 24",12,"","Alanine Aminotransferase (U/L)","ALT",1,"CHEM",13,15,6,35,2.16666666667,0.371428571429,2.5,0.428571428571,"","",null,"R2A1HI > 1.5","N",0],["CDISCPILOT01","1130","01-701-1130","Placebo",0,"Placebo",0,"2014-02-15","2014-08-16",84,">80",3,"WHITE",1,"M","Y","","Y","         Week 24",24,169,"2014-08-02","WEEK 24",12,"","Aspartate Aminotransferase (U/L)","AST",2,"CHEM",22,24,11,36,2,0.611111111111,2.18181818182,0.666666666667,"","",null,"R2A1HI > 1.5","N",0],["CDISCPILOT01","1130","01-701-1130","Placebo",0,"Placebo",0,"2014-02-15","2014-08-16",84,">80",3,"WHITE",1,"M","Y","","Y","         Week 24",24,169,"2014-08-02","WEEK 24",12,"","Bilirubin (umol/L)","BILI",3,"CHEM",11.97,8.55,3,21,3.99,0.57,2.85,0.407142857143,"","",null,"R2A1HI > 1.5","N",0],["CDISCPILOT01","1130","01-701-1130","Placebo",0,"Placebo",0,"2014-02-15","2014-08-16",84,">80",3,"WHITE",1,"M","Y","","Y","         Week 24",24,null,null,"",null,"DERIVED","Bilirubin 1.5 x ULN","BILIHY",4,"HYLAW",0,0,null,null,null,null,null,null,"","Normal to Normal",1,"","",null],["CDISCPILOT01","1130","01-701-1130","Placebo",0,"Placebo",0,"2014-02-15","2014-08-16",84,">80",3,"WHITE",1,"M","Y","","Y","         Week 24",24,null,null,"",null,"DERIVED","Transaminase 1.5 x ULN","TRANSHY",5,"HYLAW",0,0,null,null,null,null,null,null,"","Normal to Normal",1,"","",null],["CDISCPILOT01","1130","01-701-1130","Placebo",0,"Placebo",0,"2014-02-15","2014-08-16",84,">80",3,"WHITE",1,"M","Y","","Y","         Week 24",24,null,null,"",null,"DERIVED","Total Bili 1.5 x ULN and Transaminase 1.5 x ULN","HYLAW",6,"HYLAW",0,0,null,null,null,null,null,null,"","Normal to Normal",1,"","",null],["CDISCPILOT01","1133","01-701-1133","Xanomeline High Dose",81,"Xanomeline High Dose",81,"2012-10-28","2013-04-28",81,">80",3,"WHITE",1,"F","Y","","Y","        Baseline",0,-5,"2012-10-23","SCREENING 1",1,"","Alanine Aminotransferase (U/L)","ALT",1,"CHEM",23,23,6,32,3.83333333333,0.71875,3.83333333333,0.71875,"Y","",null,"R2A1HI > 1.5","N",0],["CDISCPILOT01","1133","01-701-1133","Xanomeline High Dose",81,"Xanomeline High Dose",81,"2012-10-28","2013-04-28",81,">80",3,"WHITE",1,"F","Y","","Y","        Baseline",0,-5,"2012-10-23","SCREENING 1",1,"","Aspartate Aminotransferase (U/L)","AST",2,"CHEM",27,27,9,34,3,0.794117647059,3,0.794117647059,"Y","",null,"R2A1HI > 1.5","N",0],["CDISCPILOT01","1133","01-701-1133","Xanomeline High Dose",81,"Xanomeline High Dose",81,"2012-10-28","2013-04-28",81,">80",3,"WHITE",1,"F","Y","","Y","        Baseline",0,-5,"2012-10-23","SCREENING 1",1,"","Bilirubin (umol/L)","BILI",3,"CHEM",15.39,15.39,3,21,5.13,0.732857142857,5.13,0.732857142857,"Y","",null,"R2A1HI > 1.5","N",0],["CDISCPILOT01","1133","01-701-1133","Xanomeline High Dose",81,"Xanomeline High Dose",81,"2012-10-28","2013-04-28",81,">80",3,"WHITE",1,"F","Y","","Y","        Baseline",0,null,null,"",null,"DERIVED","Bilirubin 1.5 x ULN","BILIHY",4,"HYLAW",0,0,null,null,null,null,null,null,"Y","Normal to Normal",1,"","",null],["CDISCPILOT01","1133","01-701-1133","Xanomeline High Dose",81,"Xanomeline High Dose",81,"2012-10-28","2013-04-28",81,">80",3,"WHITE",1,"F","Y","","Y","        Baseline",0,null,null,"",null,"DERIVED","Transaminase 1.5 x ULN","TRANSHY",5,"HYLAW",0,0,null,null,null,null,null,null,"Y","Normal to Normal",1,"","",null],["CDISCPILOT01","1133","01-701-1133","Xanomeline High Dose",81,"Xanomeline High Dose",81,"2012-10-28","2013-04-28",81,">80",3,"WHITE",1,"F","Y","","Y","        Baseline",0,null,null,"",null,"DERIVED","Total Bili 1.5 x ULN and Transaminase 1.5 x ULN","HYLAW",6,"HYLAW",0,0,null,null,null,null,null,null,"Y","Normal to Normal",1,"","",null],["CDISCPILOT01","1133","01-701-1133","Xanomeline High Dose",81,"Xanomeline High Dose",81,"2012-10-28","2013-04-28",81,">80",3,"WHITE",1,"F","Y","","Y","          Week 4",4,30,"2012-11-26","WEEK 4",5,"","Alanine Aminotransferase (U/L)","ALT",1,"CHEM",21,23,6,32,3.5,0.65625,3.83333333333,0.71875,"","",null,"R2A1HI > 1.5","N",0],["CDISCPILOT01","1133","01-701-1133","Xanomeline High Dose",81,"Xanomeline High Dose",81,"2012-10-28","2013-04-28",81,">80",3,"WHITE",1,"F","Y","","Y","          Week 4",4,30,"2012-11-26","WEEK 4",5,"","Aspartate Aminotransferase (U/L)","AST",2,"CHEM",20,27,9,34,2.22222222222,0.588235294118,3,0.794117647059,"","",null,"R2A1HI > 1.5","N",0],["CDISCPILOT01","1133","01-701-1133","Xanomeline High Dose",81,"Xanomeline High Dose",81,"2012-10-28","2013-04-28",81,">80",3,"WHITE",1,"F","Y","","Y","          Week 4",4,30,"2012-11-26","WEEK 4",5,"","Bilirubin (umol/L)","BILI",3,"CHEM",10.26,15.39,3,21,3.42,0.488571428571,5.13,0.732857142857,"","",null,"R2A1HI > 1.5","N",0],["CDISCPILOT01","1133","01-701-1133","Xanomeline High Dose",81,"Xanomeline High Dose",81,"2012-10-28","2013-04-28",81,">80",3,"WHITE",1,"F","Y","","Y","          Week 4",4,null,null,"",null,"DERIVED","Bilirubin 1.5 x ULN","BILIHY",4,"HYLAW",0,0,null,null,null,null,null,null,"","Normal to Normal",1,"","",null],["CDISCPILOT01","1133","01-701-1133","Xanomeline High Dose",81,"Xanomeline High Dose",81,"2012-10-28","2013-04-28",81,">80",3,"WHITE",1,"F","Y","","Y","          Week 4",4,null,null,"",null,"DERIVED","Transaminase 1.5 x ULN","TRANSHY",5,"HYLAW",0,0,null,null,null,null,null,null,"","Normal to Normal",1,"","",null],["CDISCPILOT01","1133","01-701-1133","Xanomeline High Dose",81,"Xanomeline High Dose",81,"2012-10-28","2013-04-28",81,">80",3,"WHITE",1,"F","Y","","Y","          Week 4",4,null,null,"",null,"DERIVED","Total Bili 1.5 x ULN and Transaminase 1.5 x ULN","HYLAW",6,"HYLAW",0,0,null,null,null,null,null,null,"","Normal to Normal",1,"","",null],["CDISCPILOT01","1133","01-701-1133","Xanomeline High Dose",81,"Xanomeline High Dose",81,"2012-10-28","2013-04-28",81,">80",3,"WHITE",1,"F","Y","","Y","          Week 6",6,45,"2012-12-11","WEEK 6",7,"","Alanine Aminotransferase (U/L)","ALT",1,"CHEM",15,23,6,32,2.5,0.46875,3.83333333333,0.71875,"","",null,"R2A1HI > 1.5","N",0],["CDISCPILOT01","1133","01-701-1133","Xanomeline High Dose",81,"Xanomeline High Dose",81,"2012-10-28","2013-04-28",81,">80",3,"WHITE",1,"F","Y","","Y","          Week 6",6,45,"2012-12-11","WEEK 6",7,"","Aspartate Aminotransferase (U/L)","AST",2,"CHEM",20,27,9,34,2.22222222222,0.588235294118,3,0.794117647059,"","",null,"R2A1HI > 1.5","N",0],["CDISCPILOT01","1133","01-701-1133","Xanomeline High Dose",81,"Xanomeline High Dose",81,"2012-10-28","2013-04-28",81,">80",3,"WHITE",1,"F","Y","","Y","          Week 6",6,45,"2012-12-11","WEEK 6",7,"","Bilirubin (umol/L)","BILI",3,"CHEM",11.97,15.39,3,21,3.99,0.57,5.13,0.732857142857,"","",null,"R2A1HI > 1.5","N",0],["CDISCPILOT01","1133","01-701-1133","Xanomeline High Dose",81,"Xanomeline High Dose",81,"2012-10-28","2013-04-28",81,">80",3,"WHITE",1,"F","Y","","Y","          Week 6",6,null,null,"",null,"DERIVED","Bilirubin 1.5 x ULN","BILIHY",4,"HYLAW",0,0,null,null,null,null,null,null,"","Normal to Normal",1,"","",null],["CDISCPILOT01","1133","01-701-1133","Xanomeline High Dose",81,"Xanomeline High Dose",81,"2012-10-28","2013-04-28",81,">80",3,"WHITE",1,"F","Y","","Y","          Week 6",6,null,null,"",null,"DERIVED","Transaminase 1.5 x ULN","TRANSHY",5,"HYLAW",0,0,null,null,null,null,null,null,"","Normal to Normal",1,"","",null],["CDISCPILOT01","1133","01-701-1133","Xanomeline High Dose",81,"Xanomeline High Dose",81,"2012-10-28","2013-04-28",81,">80",3,"WHITE",1,"F","Y","","Y","          Week 6",6,null,null,"",null,"DERIVED","Total Bili 1.5 x ULN and Transaminase 1.5 x ULN","HYLAW",6,"HYLAW",0,0,null,null,null,null,null,null,"","Normal to Normal",1,"","",null],["CDISCPILOT01","1133","01-701-1133","Xanomeline High Dose",81,"Xanomeline High Dose",81,"2012-10-28","2013-04-28",81,">80",3,"WHITE",1,"F","Y","","Y","          Week 8",8,58,"2012-12-24","WEEK 8",8,"","Alanine Aminotransferase (U/L)","ALT",1,"CHEM",16,23,6,32,2.66666666667,0.5,3.83333333333,0.71875,"","",null,"R2A1HI > 1.5","N",0],["CDISCPILOT01","1133","01-701-1133","Xanomeline High Dose",81,"Xanomeline High Dose",81,"2012-10-28","2013-04-28",81,">80",3,"WHITE",1,"F","Y","","Y","          Week 8",8,58,"2012-12-24","WEEK 8",8,"","Aspartate Aminotransferase (U/L)","AST",2,"CHEM",19,27,9,34,2.11111111111,0.558823529412,3,0.794117647059,"","",null,"R2A1HI > 1.5","N",0],["CDISCPILOT01","1133","01-701-1133","Xanomeline High Dose",81,"Xanomeline High Dose",81,"2012-10-28","2013-04-28",81,">80",3,"WHITE",1,"F","Y","","Y","          Week 8",8,58,"2012-12-24","WEEK 8",8,"","Bilirubin (umol/L)","BILI",3,"CHEM",10.26,15.39,3,21,3.42,0.488571428571,5.13,0.732857142857,"","",null,"R2A1HI > 1.5","N",0],["CDISCPILOT01","1133","01-701-1133","Xanomeline High Dose",81,"Xanomeline High Dose",81,"2012-10-28","2013-04-28",81,">80",3,"WHITE",1,"F","Y","","Y","          Week 8",8,null,null,"",null,"DERIVED","Bilirubin 1.5 x ULN","BILIHY",4,"HYLAW",0,0,null,null,null,null,null,null,"","Normal to Normal",1,"","",null],["CDISCPILOT01","1133","01-701-1133","Xanomeline High Dose",81,"Xanomeline High Dose",81,"2012-10-28","2013-04-28",81,">80",3,"WHITE",1,"F","Y","","Y","          Week 8",8,null,null,"",null,"DERIVED","Transaminase 1.5 x ULN","TRANSHY",5,"HYLAW",0,0,null,null,null,null,null,null,"","Normal to Normal",1,"","",null],["CDISCPILOT01","1133","01-701-1133","Xanomeline High Dose",81,"Xanomeline High Dose",81,"2012-10-28","2013-04-28",81,">80",3,"WHITE",1,"F","Y","","Y","          Week 8",8,null,null,"",null,"DERIVED","Total Bili 1.5 x ULN and Transaminase 1.5 x ULN","HYLAW",6,"HYLAW",0,0,null,null,null,null,null,null,"","Normal to Normal",1,"","",null],["CDISCPILOT01","1133","01-701-1133","Xanomeline High Dose",81,"Xanomeline High Dose",81,"2012-10-28","2013-04-28",81,">80",3,"WHITE",1,"F","Y","","Y","         Week 12",12,87,"2013-01-22","WEEK 12",9,"","Alanine Aminotransferase (U/L)","ALT",1,"CHEM",16,23,6,32,2.66666666667,0.5,3.83333333333,0.71875,"","",null,"R2A1HI > 1.5","N",0],["CDISCPILOT01","1133","01-701-1133","Xanomeline High Dose",81,"Xanomeline High Dose",81,"2012-10-28","2013-04-28",81,">80",3,"WHITE",1,"F","Y","","Y","         Week 12",12,87,"2013-01-22","WEEK 12",9,"","Aspartate Aminotransferase (U/L)","AST",2,"CHEM",19,27,9,34,2.11111111111,0.558823529412,3,0.794117647059,"","",null,"R2A1HI > 1.5","N",0],["CDISCPILOT01","1133","01-701-1133","Xanomeline High Dose",81,"Xanomeline High Dose",81,"2012-10-28","2013-04-28",81,">80",3,"WHITE",1,"F","Y","","Y","         Week 12",12,87,"2013-01-22","WEEK 12",9,"","Bilirubin (umol/L)","BILI",3,"CHEM",10.26,15.39,3,21,3.42,0.488571428571,5.13,0.732857142857,"","",null,"R2A1HI > 1.5","N",0],["CDISCPILOT01","1133","01-701-1133","Xanomeline High Dose",81,"Xanomeline High Dose",81,"2012-10-28","2013-04-28",81,">80",3,"WHITE",1,"F","Y","","Y","         Week 12",12,null,null,"",null,"DERIVED","Bilirubin 1.5 x ULN","BILIHY",4,"HYLAW",0,0,null,null,null,null,null,null,"","Normal to Normal",1,"","",null],["CDISCPILOT01","1133","01-701-1133","Xanomeline High Dose",81,"Xanomeline High Dose",81,"2012-10-28","2013-04-28",81,">80",3,"WHITE",1,"F","Y","","Y","         Week 12",12,null,null,"",null,"DERIVED","Transaminase 1.5 x ULN","TRANSHY",5,"HYLAW",0,0,null,null,null,null,null,null,"","Normal to Normal",1,"","",null],["CDISCPILOT01","1133","01-701-1133","Xanomeline High Dose",81,"Xanomeline High Dose",81,"2012-10-28","2013-04-28",81,">80",3,"WHITE",1,"F","Y","","Y","         Week 12",12,null,null,"",null,"DERIVED","Total Bili 1.5 x ULN and Transaminase 1.5 x ULN","HYLAW",6,"HYLAW",0,0,null,null,null,null,null,null,"","Normal to Normal",1,"","",null],["CDISCPILOT01","1133","01-701-1133","Xanomeline High Dose",81,"Xanomeline High Dose",81,"2012-10-28","2013-04-28",81,">80",3,"WHITE",1,"F","Y","","Y","         Week 16",16,114,"2013-02-18","WEEK 16",10,"","Alanine Aminotransferase (U/L)","ALT",1,"CHEM",15,23,6,32,2.5,0.46875,3.83333333333,0.71875,"","",null,"R2A1HI > 1.5","N",0],["CDISCPILOT01","1133","01-701-1133","Xanomeline High Dose",81,"Xanomeline High Dose",81,"2012-10-28","2013-04-28",81,">80",3,"WHITE",1,"F","Y","","Y","         Week 16",16,114,"2013-02-18","WEEK 16",10,"","Aspartate Aminotransferase (U/L)","AST",2,"CHEM",19,27,9,34,2.11111111111,0.558823529412,3,0.794117647059,"","",null,"R2A1HI > 1.5","N",0],["CDISCPILOT01","1133","01-701-1133","Xanomeline High Dose",81,"Xanomeline High Dose",81,"2012-10-28","2013-04-28",81,">80",3,"WHITE",1,"F","Y","","Y","         Week 16",16,114,"2013-02-18","WEEK 16",10,"","Bilirubin (umol/L)","BILI",3,"CHEM",13.68,15.39,3,21,4.56,0.651428571429,5.13,0.732857142857,"","",null,"R2A1HI > 1.5","N",0],["CDISCPILOT01","1133","01-701-1133","Xanomeline High Dose",81,"Xanomeline High Dose",81,"2012-10-28","2013-04-28",81,">80",3,"WHITE",1,"F","Y","","Y","         Week 16",16,null,null,"",null,"DERIVED","Bilirubin 1.5 x ULN","BILIHY",4,"HYLAW",0,0,null,null,null,null,null,null,"","Normal to Normal",1,"","",null],["CDISCPILOT01","1133","01-701-1133","Xanomeline High Dose",81,"Xanomeline High Dose",81,"2012-10-28","2013-04-28",81,">80",3,"WHITE",1,"F","Y","","Y","         Week 16",16,null,null,"",null,"DERIVED","Transaminase 1.5 x ULN","TRANSHY",5,"HYLAW",0,0,null,null,null,null,null,null,"","Normal to Normal",1,"","",null],["CDISCPILOT01","1133","01-701-1133","Xanomeline High Dose",81,"Xanomeline High Dose",81,"2012-10-28","2013-04-28",81,">80",3,"WHITE",1,"F","Y","","Y","         Week 16",16,null,null,"",null,"DERIVED","Total Bili 1.5 x ULN and Transaminase 1.5 x ULN","HYLAW",6,"HYLAW",0,0,null,null,null,null,null,null,"","Normal to Normal",1,"","",null],["CDISCPILOT01","1133","01-701-1133","Xanomeline High Dose",81,"Xanomeline High Dose",81,"2012-10-28","2013-04-28",81,">80",3,"WHITE",1,"F","Y","","Y","         Week 20",20,142,"2013-03-18","WEEK 20",11,"","Alanine Aminotransferase (U/L)","ALT",1,"CHEM",19,23,6,32,3.16666666667,0.59375,3.83333333333,0.71875,"","",null,"R2A1HI > 1.5","N",0],["CDISCPILOT01","1133","01-701-1133","Xanomeline High Dose",81,"Xanomeline High Dose",81,"2012-10-28","2013-04-28",81,">80",3,"WHITE",1,"F","Y","","Y","         Week 20",20,142,"2013-03-18","WEEK 20",11,"","Aspartate Aminotransferase (U/L)","AST",2,"CHEM",21,27,9,34,2.33333333333,0.617647058824,3,0.794117647059,"","",null,"R2A1HI > 1.5","N",0],["CDISCPILOT01","1133","01-701-1133","Xanomeline High Dose",81,"Xanomeline High Dose",81,"2012-10-28","2013-04-28",81,">80",3,"WHITE",1,"F","Y","","Y","         Week 20",20,142,"2013-03-18","WEEK 20",11,"","Bilirubin (umol/L)","BILI",3,"CHEM",10.26,15.39,3,21,3.42,0.488571428571,5.13,0.732857142857,"","",null,"R2A1HI > 1.5","N",0],["CDISCPILOT01","1133","01-701-1133","Xanomeline High Dose",81,"Xanomeline High Dose",81,"2012-10-28","2013-04-28",81,">80",3,"WHITE",1,"F","Y","","Y","         Week 20",20,null,null,"",null,"DERIVED","Bilirubin 1.5 x ULN","BILIHY",4,"HYLAW",0,0,null,null,null,null,null,null,"","Normal to Normal",1,"","",null],["CDISCPILOT01","1133","01-701-1133","Xanomeline High Dose",81,"Xanomeline High Dose",81,"2012-10-28","2013-04-28",81,">80",3,"WHITE",1,"F","Y","","Y","         Week 20",20,null,null,"",null,"DERIVED","Transaminase 1.5 x ULN","TRANSHY",5,"HYLAW",0,0,null,null,null,null,null,null,"","Normal to Normal",1,"","",null],["CDISCPILOT01","1133","01-701-1133","Xanomeline High Dose",81,"Xanomeline High Dose",81,"2012-10-28","2013-04-28",81,">80",3,"WHITE",1,"F","Y","","Y","         Week 20",20,null,null,"",null,"DERIVED","Total Bili 1.5 x ULN and Transaminase 1.5 x ULN","HYLAW",6,"HYLAW",0,0,null,null,null,null,null,null,"","Normal to Normal",1,"","",null],["CDISCPILOT01","1133","01-701-1133","Xanomeline High Dose",81,"Xanomeline High Dose",81,"2012-10-28","2013-04-28",81,">80",3,"WHITE",1,"F","Y","","Y","         Week 24",24,173,"2013-04-18","WEEK 24",12,"","Alanine Aminotransferase (U/L)","ALT",1,"CHEM",18,23,6,32,3,0.5625,3.83333333333,0.71875,"","",null,"R2A1HI > 1.5","N",0],["CDISCPILOT01","1133","01-701-1133","Xanomeline High Dose",81,"Xanomeline High Dose",81,"2012-10-28","2013-04-28",81,">80",3,"WHITE",1,"F","Y","","Y","         Week 24",24,173,"2013-04-18","WEEK 24",12,"","Aspartate Aminotransferase (U/L)","AST",2,"CHEM",23,27,9,34,2.55555555556,0.676470588235,3,0.794117647059,"","",null,"R2A1HI > 1.5","N",0],["CDISCPILOT01","1133","01-701-1133","Xanomeline High Dose",81,"Xanomeline High Dose",81,"2012-10-28","2013-04-28",81,">80",3,"WHITE",1,"F","Y","","Y","         Week 24",24,173,"2013-04-18","WEEK 24",12,"","Bilirubin (umol/L)","BILI",3,"CHEM",11.97,15.39,3,21,3.99,0.57,5.13,0.732857142857,"","",null,"R2A1HI > 1.5","N",0],["CDISCPILOT01","1133","01-701-1133","Xanomeline High Dose",81,"Xanomeline High Dose",81,"2012-10-28","2013-04-28",81,">80",3,"WHITE",1,"F","Y","","Y","         Week 24",24,null,null,"",null,"DERIVED","Bilirubin 1.5 x ULN","BILIHY",4,"HYLAW",0,0,null,null,null,null,null,null,"","Normal to Normal",1,"","",null],["CDISCPILOT01","1133","01-701-1133","Xanomeline High Dose",81,"Xanomeline High Dose",81,"2012-10-28","2013-04-28",81,">80",3,"WHITE",1,"F","Y","","Y","         Week 24",24,null,null,"",null,"DERIVED","Transaminase 1.5 x ULN","TRANSHY",5,"HYLAW",0,0,null,null,null,null,null,null,"","Normal to Normal",1,"","",null],["CDISCPILOT01","1133","01-701-1133","Xanomeline High Dose",81,"Xanomeline High Dose",81,"2012-10-28","2013-04-28",81,">80",3,"WHITE",1,"F","Y","","Y","         Week 24",24,null,null,"",null,"DERIVED","Total Bili 1.5 x ULN and Transaminase 1.5 x ULN","HYLAW",6,"HYLAW",0,0,null,null,null,null,null,null,"","Normal to Normal",1,"","",null],["CDISCPILOT01","1146","01-701-1146","Xanomeline High Dose",81,"Xanomeline High Dose",81,"2013-05-20","2013-06-26",75,"65-80",2,"WHITE",1,"F","N","Y","Y","        Baseline",0,-13,"2013-05-07","SCREENING 1",1,"","Alanine Aminotransferase (U/L)","ALT",1,"CHEM",15,15,6,32,2.5,0.46875,2.5,0.46875,"Y","",null,"R2A1HI > 1.5","N",0],["CDISCPILOT01","1146","01-701-1146","Xanomeline High Dose",81,"Xanomeline High Dose",81,"2013-05-20","2013-06-26",75,"65-80",2,"WHITE",1,"F","N","Y","Y","        Baseline",0,-13,"2013-05-07","SCREENING 1",1,"","Aspartate Aminotransferase (U/L)","AST",2,"CHEM",14,14,9,34,1.55555555556,0.411764705882,1.55555555556,0.411764705882,"Y","",null,"R2A1HI > 1.5","N",0],["CDISCPILOT01","1146","01-701-1146","Xanomeline High Dose",81,"Xanomeline High Dose",81,"2013-05-20","2013-06-26",75,"65-80",2,"WHITE",1,"F","N","Y","Y","        Baseline",0,-13,"2013-05-07","SCREENING 1",1,"","Bilirubin (umol/L)","BILI",3,"CHEM",5.13,5.13,3,21,1.71,0.244285714286,1.71,0.244285714286,"Y","",null,"R2A1HI > 1.5","N",0],["CDISCPILOT01","1146","01-701-1146","Xanomeline High Dose",81,"Xanomeline High Dose",81,"2013-05-20","2013-06-26",75,"65-80",2,"WHITE",1,"F","N","Y","Y","        Baseline",0,null,null,"",null,"DERIVED","Bilirubin 1.5 x ULN","BILIHY",4,"HYLAW",0,0,null,null,null,null,null,null,"Y","Normal to Normal",1,"","",null],["CDISCPILOT01","1146","01-701-1146","Xanomeline High Dose",81,"Xanomeline High Dose",81,"2013-05-20","2013-06-26",75,"65-80",2,"WHITE",1,"F","N","Y","Y","        Baseline",0,null,null,"",null,"DERIVED","Transaminase 1.5 x ULN","TRANSHY",5,"HYLAW",0,0,null,null,null,null,null,null,"Y","Normal to Normal",1,"","",null],["CDISCPILOT01","1146","01-701-1146","Xanomeline High Dose",81,"Xanomeline High Dose",81,"2013-05-20","2013-06-26",75,"65-80",2,"WHITE",1,"F","N","Y","Y","        Baseline",0,null,null,"",null,"DERIVED","Total Bili 1.5 x ULN and Transaminase 1.5 x ULN","HYLAW",6,"HYLAW",0,0,null,null,null,null,null,null,"Y","Normal to Normal",1,"","",null],["CDISCPILOT01","1146","01-701-1146","Xanomeline High Dose",81,"Xanomeline High Dose",81,"2013-05-20","2013-06-26",75,"65-80",2,"WHITE",1,"F","N","Y","Y","          Week 2",2,15,"2013-06-03","WEEK 2",4,"","Alanine Aminotransferase (U/L)","ALT",1,"CHEM",14,15,6,32,2.33333333333,0.4375,2.5,0.46875,"","",null,"R2A1HI > 1.5","N",0],["CDISCPILOT01","1146","01-701-1146","Xanomeline High Dose",81,"Xanomeline High Dose",81,"2013-05-20","2013-06-26",75,"65-80",2,"WHITE",1,"F","N","Y","Y","          Week 2",2,15,"2013-06-03","WEEK 2",4,"","Aspartate Aminotransferase (U/L)","AST",2,"CHEM",20,14,9,34,2.22222222222,0.588235294118,1.55555555556,0.411764705882,"","",null,"R2A1HI > 1.5","N",0],["CDISCPILOT01","1146","01-701-1146","Xanomeline High Dose",81,"Xanomeline High Dose",81,"2013-05-20","2013-06-26",75,"65-80",2,"WHITE",1,"F","N","Y","Y","          Week 2",2,15,"2013-06-03","WEEK 2",4,"","Bilirubin (umol/L)","BILI",3,"CHEM",6.84,5.13,3,21,2.28,0.325714285714,1.71,0.244285714286,"","",null,"R2A1HI > 1.5","N",0],["CDISCPILOT01","1146","01-701-1146","Xanomeline High Dose",81,"Xanomeline High Dose",81,"2013-05-20","2013-06-26",75,"65-80",2,"WHITE",1,"F","N","Y","Y","          Week 2",2,null,null,"",null,"DERIVED","Bilirubin 1.5 x ULN","BILIHY",4,"HYLAW",0,0,null,null,null,null,null,null,"","Normal to Normal",1,"","",null],["CDISCPILOT01","1146","01-701-1146","Xanomeline High Dose",81,"Xanomeline High Dose",81,"2013-05-20","2013-06-26",75,"65-80",2,"WHITE",1,"F","N","Y","Y","          Week 2",2,null,null,"",null,"DERIVED","Transaminase 1.5 x ULN","TRANSHY",5,"HYLAW",0,0,null,null,null,null,null,null,"","Normal to Normal",1,"","",null],["CDISCPILOT01","1146","01-701-1146","Xanomeline High Dose",81,"Xanomeline High Dose",81,"2013-05-20","2013-06-26",75,"65-80",2,"WHITE",1,"F","N","Y","Y","          Week 2",2,null,null,"",null,"DERIVED","Total Bili 1.5 x ULN and Transaminase 1.5 x ULN","HYLAW",6,"HYLAW",0,0,null,null,null,null,null,null,"","Normal to Normal",1,"","",null],["CDISCPILOT01","1146","01-701-1146","Xanomeline High Dose",81,"Xanomeline High Dose",81,"2013-05-20","2013-06-26",75,"65-80",2,"WHITE",1,"F","N","Y","Y","          Week 4",4,28,"2013-06-16","WEEK 4",5,"","Alanine Aminotransferase (U/L)","ALT",1,"CHEM",16,15,6,32,2.66666666667,0.5,2.5,0.46875,"","",null,"R2A1HI > 1.5","N",0],["CDISCPILOT01","1146","01-701-1146","Xanomeline High Dose",81,"Xanomeline High Dose",81,"2013-05-20","2013-06-26",75,"65-80",2,"WHITE",1,"F","N","Y","Y","          Week 4",4,28,"2013-06-16","WEEK 4",5,"","Aspartate Aminotransferase (U/L)","AST",2,"CHEM",19,14,9,34,2.11111111111,0.558823529412,1.55555555556,0.411764705882,"","",null,"R2A1HI > 1.5","N",0],["CDISCPILOT01","1146","01-701-1146","Xanomeline High Dose",81,"Xanomeline High Dose",81,"2013-05-20","2013-06-26",75,"65-80",2,"WHITE",1,"F","N","Y","Y","          Week 4",4,28,"2013-06-16","WEEK 4",5,"","Bilirubin (umol/L)","BILI",3,"CHEM",5.13,5.13,3,21,1.71,0.244285714286,1.71,0.244285714286,"","",null,"R2A1HI > 1.5","N",0],["CDISCPILOT01","1146","01-701-1146","Xanomeline High Dose",81,"Xanomeline High Dose",81,"2013-05-20","2013-06-26",75,"65-80",2,"WHITE",1,"F","N","Y","Y","          Week 4",4,null,null,"",null,"DERIVED","Bilirubin 1.5 x ULN","BILIHY",4,"HYLAW",0,0,null,null,null,null,null,null,"","Normal to Normal",1,"","",null],["CDISCPILOT01","1146","01-701-1146","Xanomeline High Dose",81,"Xanomeline High Dose",81,"2013-05-20","2013-06-26",75,"65-80",2,"WHITE",1,"F","N","Y","Y","          Week 4",4,null,null,"",null,"DERIVED","Transaminase 1.5 x ULN","TRANSHY",5,"HYLAW",0,0,null,null,null,null,null,null,"","Normal to Normal",1,"","",null],["CDISCPILOT01","1146","01-701-1146","Xanomeline High Dose",81,"Xanomeline High Dose",81,"2013-05-20","2013-06-26",75,"65-80",2,"WHITE",1,"F","N","Y","Y","          Week 4",4,null,null,"",null,"DERIVED","Total Bili 1.5 x ULN and Transaminase 1.5 x ULN","HYLAW",6,"HYLAW",0,0,null,null,null,null,null,null,"","Normal to Normal",1,"","",null],["CDISCPILOT01","1146","01-701-1146","Xanomeline High Dose",81,"Xanomeline High Dose",81,"2013-05-20","2013-06-26",75,"65-80",2,"WHITE",1,"F","N","Y","Y","          Week 6",6,42,"2013-06-30","WEEK 6",7,"","Alanine Aminotransferase (U/L)","ALT",1,"CHEM",13,15,6,32,2.16666666667,0.40625,2.5,0.46875,"","",null,"R2A1HI > 1.5","N",0],["CDISCPILOT01","1146","01-701-1146","Xanomeline High Dose",81,"Xanomeline High Dose",81,"2013-05-20","2013-06-26",75,"65-80",2,"WHITE",1,"F","N","Y","Y","          Week 6",6,42,"2013-06-30","WEEK 6",7,"","Aspartate Aminotransferase (U/L)","AST",2,"CHEM",20,14,9,34,2.22222222222,0.588235294118,1.55555555556,0.411764705882,"","",null,"R2A1HI > 1.5","N",0],["CDISCPILOT01","1146","01-701-1146","Xanomeline High Dose",81,"Xanomeline High Dose",81,"2013-05-20","2013-06-26",75,"65-80",2,"WHITE",1,"F","N","Y","Y","          Week 6",6,42,"2013-06-30","WEEK 6",7,"","Bilirubin (umol/L)","BILI",3,"CHEM",10.26,5.13,3,21,3.42,0.488571428571,1.71,0.244285714286,"","",null,"R2A1HI > 1.5","N",0],["CDISCPILOT01","1146","01-701-1146","Xanomeline High Dose",81,"Xanomeline High Dose",81,"2013-05-20","2013-06-26",75,"65-80",2,"WHITE",1,"F","N","Y","Y","          Week 6",6,null,null,"",null,"DERIVED","Bilirubin 1.5 x ULN","BILIHY",4,"HYLAW",0,0,null,null,null,null,null,null,"","Normal to Normal",1,"","",null],["CDISCPILOT01","1146","01-701-1146","Xanomeline High Dose",81,"Xanomeline High Dose",81,"2013-05-20","2013-06-26",75,"65-80",2,"WHITE",1,"F","N","Y","Y","          Week 6",6,null,null,"",null,"DERIVED","Transaminase 1.5 x ULN","TRANSHY",5,"HYLAW",0,0,null,null,null,null,null,null,"","Normal to Normal",1,"","",null],["CDISCPILOT01","1146","01-701-1146","Xanomeline High Dose",81,"Xanomeline High Dose",81,"2013-05-20","2013-06-26",75,"65-80",2,"WHITE",1,"F","N","Y","Y","          Week 6",6,null,null,"",null,"DERIVED","Total Bili 1.5 x ULN and Transaminase 1.5 x ULN","HYLAW",6,"HYLAW",0,0,null,null,null,null,null,null,"","Normal to Normal",1,"","",null],["CDISCPILOT01","1148","01-701-1148","Xanomeline High Dose",81,"Xanomeline High Dose",81,"2013-08-23","2014-02-20",57,"<65",1,"WHITE",1,"M","Y","","Y","        Baseline",0,-9,"2013-08-14","SCREENING 1",1,"","Alanine Aminotransferase (U/L)","ALT",1,"CHEM",34,34,6,43,5.66666666667,0.790697674419,5.66666666667,0.790697674419,"Y","",null,"R2A1HI > 1.5","N",0],["CDISCPILOT01","1148","01-701-1148","Xanomeline High Dose",81,"Xanomeline High Dose",81,"2013-08-23","2014-02-20",57,"<65",1,"WHITE",1,"M","Y","","Y","        Baseline",0,-9,"2013-08-14","SCREENING 1",1,"","Aspartate Aminotransferase (U/L)","AST",2,"CHEM",25,25,11,36,2.27272727273,0.694444444444,2.27272727273,0.694444444444,"Y","",null,"R2A1HI > 1.5","N",0],["CDISCPILOT01","1148","01-701-1148","Xanomeline High Dose",81,"Xanomeline High Dose",81,"2013-08-23","2014-02-20",57,"<65",1,"WHITE",1,"M","Y","","Y","        Baseline",0,-9,"2013-08-14","SCREENING 1",1,"","Bilirubin (umol/L)","BILI",3,"CHEM",8.55,8.55,3,21,2.85,0.407142857143,2.85,0.407142857143,"Y","",null,"R2A1HI > 1.5","N",0],["CDISCPILOT01","1148","01-701-1148","Xanomeline High Dose",81,"Xanomeline High Dose",81,"2013-08-23","2014-02-20",57,"<65",1,"WHITE",1,"M","Y","","Y","        Baseline",0,null,null,"",null,"DERIVED","Bilirubin 1.5 x ULN","BILIHY",4,"HYLAW",0,0,null,null,null,null,null,null,"Y","Normal to Normal",1,"","",null],["CDISCPILOT01","1148","01-701-1148","Xanomeline High Dose",81,"Xanomeline High Dose",81,"2013-08-23","2014-02-20",57,"<65",1,"WHITE",1,"M","Y","","Y","        Baseline",0,null,null,"",null,"DERIVED","Transaminase 1.5 x ULN","TRANSHY",5,"HYLAW",0,0,null,null,null,null,null,null,"Y","Normal to Normal",1,"","",null],["CDISCPILOT01","1148","01-701-1148","Xanomeline High Dose",81,"Xanomeline High Dose",81,"2013-08-23","2014-02-20",57,"<65",1,"WHITE",1,"M","Y","","Y","        Baseline",0,null,null,"",null,"DERIVED","Total Bili 1.5 x ULN and Transaminase 1.5 x ULN","HYLAW",6,"HYLAW",0,0,null,null,null,null,null,null,"Y","Normal to Normal",1,"","",null],["CDISCPILOT01","1148","01-701-1148","Xanomeline High Dose",81,"Xanomeline High Dose",81,"2013-08-23","2014-02-20",57,"<65",1,"WHITE",1,"M","Y","","Y","          Week 2",2,14,"2013-09-05","WEEK 2",4,"","Alanine Aminotransferase (U/L)","ALT",1,"CHEM",41,34,6,43,6.83333333333,0.953488372093,5.66666666667,0.790697674419,"","",null,"R2A1HI > 1.5","N",0],["CDISCPILOT01","1148","01-701-1148","Xanomeline High Dose",81,"Xanomeline High Dose",81,"2013-08-23","2014-02-20",57,"<65",1,"WHITE",1,"M","Y","","Y","          Week 2",2,14,"2013-09-05","WEEK 2",4,"","Aspartate Aminotransferase (U/L)","AST",2,"CHEM",27,25,11,36,2.45454545455,0.75,2.27272727273,0.694444444444,"","",null,"R2A1HI > 1.5","N",0],["CDISCPILOT01","1148","01-701-1148","Xanomeline High Dose",81,"Xanomeline High Dose",81,"2013-08-23","2014-02-20",57,"<65",1,"WHITE",1,"M","Y","","Y","          Week 2",2,14,"2013-09-05","WEEK 2",4,"","Bilirubin (umol/L)","BILI",3,"CHEM",8.55,8.55,3,21,2.85,0.407142857143,2.85,0.407142857143,"","",null,"R2A1HI > 1.5","N",0],["CDISCPILOT01","1148","01-701-1148","Xanomeline High Dose",81,"Xanomeline High Dose",81,"2013-08-23","2014-02-20",57,"<65",1,"WHITE",1,"M","Y","","Y","          Week 2",2,null,null,"",null,"DERIVED","Bilirubin 1.5 x ULN","BILIHY",4,"HYLAW",0,0,null,null,null,null,null,null,"","Normal to Normal",1,"","",null],["CDISCPILOT01","1148","01-701-1148","Xanomeline High Dose",81,"Xanomeline High Dose",81,"2013-08-23","2014-02-20",57,"<65",1,"WHITE",1,"M","Y","","Y","          Week 2",2,null,null,"",null,"DERIVED","Transaminase 1.5 x ULN","TRANSHY",5,"HYLAW",0,0,null,null,null,null,null,null,"","Normal to Normal",1,"","",null],["CDISCPILOT01","1148","01-701-1148","Xanomeline High Dose",81,"Xanomeline High Dose",81,"2013-08-23","2014-02-20",57,"<65",1,"WHITE",1,"M","Y","","Y","          Week 2",2,null,null,"",null,"DERIVED","Total Bili 1.5 x ULN and Transaminase 1.5 x ULN","HYLAW",6,"HYLAW",0,0,null,null,null,null,null,null,"","Normal to Normal",1,"","",null],["CDISCPILOT01","1148","01-701-1148","Xanomeline High Dose",81,"Xanomeline High Dose",81,"2013-08-23","2014-02-20",57,"<65",1,"WHITE",1,"M","Y","","Y","          Week 4",4,28,"2013-09-19","WEEK 4",5,"","Alanine Aminotransferase (U/L)","ALT",1,"CHEM",35,34,6,43,5.83333333333,0.813953488372,5.66666666667,0.790697674419,"","",null,"R2A1HI > 1.5","N",0],["CDISCPILOT01","1148","01-701-1148","Xanomeline High Dose",81,"Xanomeline High Dose",81,"2013-08-23","2014-02-20",57,"<65",1,"WHITE",1,"M","Y","","Y","          Week 4",4,28,"2013-09-19","WEEK 4",5,"","Aspartate Aminotransferase (U/L)","AST",2,"CHEM",25,25,11,36,2.27272727273,0.694444444444,2.27272727273,0.694444444444,"","",null,"R2A1HI > 1.5","N",0],["CDISCPILOT01","1148","01-701-1148","Xanomeline High Dose",81,"Xanomeline High Dose",81,"2013-08-23","2014-02-20",57,"<65",1,"WHITE",1,"M","Y","","Y","          Week 4",4,28,"2013-09-19","WEEK 4",5,"","Bilirubin (umol/L)","BILI",3,"CHEM",8.55,8.55,3,21,2.85,0.407142857143,2.85,0.407142857143,"","",null,"R2A1HI > 1.5","N",0],["CDISCPILOT01","1148","01-701-1148","Xanomeline High Dose",81,"Xanomeline High Dose",81,"2013-08-23","2014-02-20",57,"<65",1,"WHITE",1,"M","Y","","Y","          Week 4",4,null,null,"",null,"DERIVED","Bilirubin 1.5 x ULN","BILIHY",4,"HYLAW",0,0,null,null,null,null,null,null,"","Normal to Normal",1,"","",null],["CDISCPILOT01","1148","01-701-1148","Xanomeline High Dose",81,"Xanomeline High Dose",81,"2013-08-23","2014-02-20",57,"<65",1,"WHITE",1,"M","Y","","Y","          Week 4",4,null,null,"",null,"DERIVED","Transaminase 1.5 x ULN","TRANSHY",5,"HYLAW",0,0,null,null,null,null,null,null,"","Normal to Normal",1,"","",null],["CDISCPILOT01","1148","01-701-1148","Xanomeline High Dose",81,"Xanomeline High Dose",81,"2013-08-23","2014-02-20",57,"<65",1,"WHITE",1,"M","Y","","Y","          Week 4",4,null,null,"",null,"DERIVED","Total Bili 1.5 x ULN and Transaminase 1.5 x ULN","HYLAW",6,"HYLAW",0,0,null,null,null,null,null,null,"","Normal to Normal",1,"","",null],["CDISCPILOT01","1148","01-701-1148","Xanomeline High Dose",81,"Xanomeline High Dose",81,"2013-08-23","2014-02-20",57,"<65",1,"WHITE",1,"M","Y","","Y","          Week 6",6,42,"2013-10-03","WEEK 6",7,"","Alanine Aminotransferase (U/L)","ALT",1,"CHEM",31,34,6,43,5.16666666667,0.720930232558,5.66666666667,0.790697674419,"","",null,"R2A1HI > 1.5","N",0],["CDISCPILOT01","1148","01-701-1148","Xanomeline High Dose",81,"Xanomeline High Dose",81,"2013-08-23","2014-02-20",57,"<65",1,"WHITE",1,"M","Y","","Y","          Week 6",6,42,"2013-10-03","WEEK 6",7,"","Aspartate Aminotransferase (U/L)","AST",2,"CHEM",22,25,11,36,2,0.611111111111,2.27272727273,0.694444444444,"","",null,"R2A1HI > 1.5","N",0],["CDISCPILOT01","1148","01-701-1148","Xanomeline High Dose",81,"Xanomeline High Dose",81,"2013-08-23","2014-02-20",57,"<65",1,"WHITE",1,"M","Y","","Y","          Week 6",6,42,"2013-10-03","WEEK 6",7,"","Bilirubin (umol/L)","BILI",3,"CHEM",8.55,8.55,3,21,2.85,0.407142857143,2.85,0.407142857143,"","",null,"R2A1HI > 1.5","N",0],["CDISCPILOT01","1148","01-701-1148","Xanomeline High Dose",81,"Xanomeline High Dose",81,"2013-08-23","2014-02-20",57,"<65",1,"WHITE",1,"M","Y","","Y","          Week 6",6,null,null,"",null,"DERIVED","Bilirubin 1.5 x ULN","BILIHY",4,"HYLAW",0,0,null,null,null,null,null,null,"","Normal to Normal",1,"","",null],["CDISCPILOT01","1148","01-701-1148","Xanomeline High Dose",81,"Xanomeline High Dose",81,"2013-08-23","2014-02-20",57,"<65",1,"WHITE",1,"M","Y","","Y","          Week 6",6,null,null,"",null,"DERIVED","Transaminase 1.5 x ULN","TRANSHY",5,"HYLAW",0,0,null,null,null,null,null,null,"","Normal to Normal",1,"","",null],["CDISCPILOT01","1148","01-701-1148","Xanomeline High Dose",81,"Xanomeline High Dose",81,"2013-08-23","2014-02-20",57,"<65",1,"WHITE",1,"M","Y","","Y","          Week 6",6,null,null,"",null,"DERIVED","Total Bili 1.5 x ULN and Transaminase 1.5 x ULN","HYLAW",6,"HYLAW",0,0,null,null,null,null,null,null,"","Normal to Normal",1,"","",null],["CDISCPILOT01","1148","01-701-1148","Xanomeline High Dose",81,"Xanomeline High Dose",81,"2013-08-23","2014-02-20",57,"<65",1,"WHITE",1,"M","Y","","Y","          Week 8",8,57,"2013-10-18","WEEK 8",8,"","Alanine Aminotransferase (U/L)","ALT",1,"CHEM",31,34,6,43,5.16666666667,0.720930232558,5.66666666667,0.790697674419,"","",null,"R2A1HI > 1.5","N",0],["CDISCPILOT01","1148","01-701-1148","Xanomeline High Dose",81,"Xanomeline High Dose",81,"2013-08-23","2014-02-20",57,"<65",1,"WHITE",1,"M","Y","","Y","          Week 8",8,57,"2013-10-18","WEEK 8",8,"","Aspartate Aminotransferase (U/L)","AST",2,"CHEM",26,25,11,36,2.36363636364,0.722222222222,2.27272727273,0.694444444444,"","",null,"R2A1HI > 1.5","N",0],["CDISCPILOT01","1148","01-701-1148","Xanomeline High Dose",81,"Xanomeline High Dose",81,"2013-08-23","2014-02-20",57,"<65",1,"WHITE",1,"M","Y","","Y","          Week 8",8,57,"2013-10-18","WEEK 8",8,"","Bilirubin (umol/L)","BILI",3,"CHEM",8.55,8.55,3,21,2.85,0.407142857143,2.85,0.407142857143,"","",null,"R2A1HI > 1.5","N",0],["CDISCPILOT01","1148","01-701-1148","Xanomeline High Dose",81,"Xanomeline High Dose",81,"2013-08-23","2014-02-20",57,"<65",1,"WHITE",1,"M","Y","","Y","          Week 8",8,null,null,"",null,"DERIVED","Bilirubin 1.5 x ULN","BILIHY",4,"HYLAW",0,0,null,null,null,null,null,null,"","Normal to Normal",1,"","",null],["CDISCPILOT01","1148","01-701-1148","Xanomeline High Dose",81,"Xanomeline High Dose",81,"2013-08-23","2014-02-20",57,"<65",1,"WHITE",1,"M","Y","","Y","          Week 8",8,null,null,"",null,"DERIVED","Transaminase 1.5 x ULN","TRANSHY",5,"HYLAW",0,0,null,null,null,null,null,null,"","Normal to Normal",1,"","",null],["CDISCPILOT01","1148","01-701-1148","Xanomeline High Dose",81,"Xanomeline High Dose",81,"2013-08-23","2014-02-20",57,"<65",1,"WHITE",1,"M","Y","","Y","          Week 8",8,null,null,"",null,"DERIVED","Total Bili 1.5 x ULN and Transaminase 1.5 x ULN","HYLAW",6,"HYLAW",0,0,null,null,null,null,null,null,"","Normal to Normal",1,"","",null],["CDISCPILOT01","1148","01-701-1148","Xanomeline High Dose",81,"Xanomeline High Dose",81,"2013-08-23","2014-02-20",57,"<65",1,"WHITE",1,"M","Y","","Y","         Week 12",12,87,"2013-11-17","WEEK 12",9,"","Alanine Aminotransferase (U/L)","ALT",1,"CHEM",39,34,6,43,6.5,0.906976744186,5.66666666667,0.790697674419,"","",null,"R2A1HI > 1.5","N",0],["CDISCPILOT01","1148","01-701-1148","Xanomeline High Dose",81,"Xanomeline High Dose",81,"2013-08-23","2014-02-20",57,"<65",1,"WHITE",1,"M","Y","","Y","         Week 12",12,87,"2013-11-17","WEEK 12",9,"","Aspartate Aminotransferase (U/L)","AST",2,"CHEM",25,25,11,36,2.27272727273,0.694444444444,2.27272727273,0.694444444444,"","",null,"R2A1HI > 1.5","N",0],["CDISCPILOT01","1148","01-701-1148","Xanomeline High Dose",81,"Xanomeline High Dose",81,"2013-08-23","2014-02-20",57,"<65",1,"WHITE",1,"M","Y","","Y","         Week 12",12,87,"2013-11-17","WEEK 12",9,"","Bilirubin (umol/L)","BILI",3,"CHEM",6.84,8.55,3,21,2.28,0.325714285714,2.85,0.407142857143,"","",null,"R2A1HI > 1.5","N",0],["CDISCPILOT01","1148","01-701-1148","Xanomeline High Dose",81,"Xanomeline High Dose",81,"2013-08-23","2014-02-20",57,"<65",1,"WHITE",1,"M","Y","","Y","         Week 12",12,null,null,"",null,"DERIVED","Bilirubin 1.5 x ULN","BILIHY",4,"HYLAW",0,0,null,null,null,null,null,null,"","Normal to Normal",1,"","",null],["CDISCPILOT01","1148","01-701-1148","Xanomeline High Dose",81,"Xanomeline High Dose",81,"2013-08-23","2014-02-20",57,"<65",1,"WHITE",1,"M","Y","","Y","         Week 12",12,null,null,"",null,"DERIVED","Transaminase 1.5 x ULN","TRANSHY",5,"HYLAW",0,0,null,null,null,null,null,null,"","Normal to Normal",1,"","",null],["CDISCPILOT01","1148","01-701-1148","Xanomeline High Dose",81,"Xanomeline High Dose",81,"2013-08-23","2014-02-20",57,"<65",1,"WHITE",1,"M","Y","","Y","         Week 12",12,null,null,"",null,"DERIVED","Total Bili 1.5 x ULN and Transaminase 1.5 x ULN","HYLAW",6,"HYLAW",0,0,null,null,null,null,null,null,"","Normal to Normal",1,"","",null],["CDISCPILOT01","1148","01-701-1148","Xanomeline High Dose",81,"Xanomeline High Dose",81,"2013-08-23","2014-02-20",57,"<65",1,"WHITE",1,"M","Y","","Y","         Week 16",16,113,"2013-12-13","WEEK 16",10,"","Alanine Aminotransferase (U/L)","ALT",1,"CHEM",33,34,6,43,5.5,0.767441860465,5.66666666667,0.790697674419,"","",null,"R2A1HI > 1.5","N",0],["CDISCPILOT01","1148","01-701-1148","Xanomeline High Dose",81,"Xanomeline High Dose",81,"2013-08-23","2014-02-20",57,"<65",1,"WHITE",1,"M","Y","","Y","         Week 16",16,113,"2013-12-13","WEEK 16",10,"","Aspartate Aminotransferase (U/L)","AST",2,"CHEM",26,25,11,36,2.36363636364,0.722222222222,2.27272727273,0.694444444444,"","",null,"R2A1HI > 1.5","N",0],["CDISCPILOT01","1148","01-701-1148","Xanomeline High Dose",81,"Xanomeline High Dose",81,"2013-08-23","2014-02-20",57,"<65",1,"WHITE",1,"M","Y","","Y","         Week 16",16,113,"2013-12-13","WEEK 16",10,"","Bilirubin (umol/L)","BILI",3,"CHEM",11.97,8.55,3,21,3.99,0.57,2.85,0.407142857143,"","",null,"R2A1HI > 1.5","N",0],["CDISCPILOT01","1148","01-701-1148","Xanomeline High Dose",81,"Xanomeline High Dose",81,"2013-08-23","2014-02-20",57,"<65",1,"WHITE",1,"M","Y","","Y","         Week 16",16,null,null,"",null,"DERIVED","Bilirubin 1.5 x ULN","BILIHY",4,"HYLAW",0,0,null,null,null,null,null,null,"","Normal to Normal",1,"","",null],["CDISCPILOT01","1148","01-701-1148","Xanomeline High Dose",81,"Xanomeline High Dose",81,"2013-08-23","2014-02-20",57,"<65",1,"WHITE",1,"M","Y","","Y","         Week 16",16,null,null,"",null,"DERIVED","Transaminase 1.5 x ULN","TRANSHY",5,"HYLAW",0,0,null,null,null,null,null,null,"","Normal to Normal",1,"","",null],["CDISCPILOT01","1148","01-701-1148","Xanomeline High Dose",81,"Xanomeline High Dose",81,"2013-08-23","2014-02-20",57,"<65",1,"WHITE",1,"M","Y","","Y","         Week 16",16,null,null,"",null,"DERIVED","Total Bili 1.5 x ULN and Transaminase 1.5 x ULN","HYLAW",6,"HYLAW",0,0,null,null,null,null,null,null,"","Normal to Normal",1,"","",null],["CDISCPILOT01","1148","01-701-1148","Xanomeline High Dose",81,"Xanomeline High Dose",81,"2013-08-23","2014-02-20",57,"<65",1,"WHITE",1,"M","Y","","Y","         Week 20",20,141,"2014-01-10","WEEK 20",11,"","Alanine Aminotransferase (U/L)","ALT",1,"CHEM",32,34,6,43,5.33333333333,0.744186046512,5.66666666667,0.790697674419,"","",null,"R2A1HI > 1.5","N",0],["CDISCPILOT01","1148","01-701-1148","Xanomeline High Dose",81,"Xanomeline High Dose",81,"2013-08-23","2014-02-20",57,"<65",1,"WHITE",1,"M","Y","","Y","         Week 20",20,141,"2014-01-10","WEEK 20",11,"","Aspartate Aminotransferase (U/L)","AST",2,"CHEM",26,25,11,36,2.36363636364,0.722222222222,2.27272727273,0.694444444444,"","",null,"R2A1HI > 1.5","N",0],["CDISCPILOT01","1148","01-701-1148","Xanomeline High Dose",81,"Xanomeline High Dose",81,"2013-08-23","2014-02-20",57,"<65",1,"WHITE",1,"M","Y","","Y","         Week 20",20,141,"2014-01-10","WEEK 20",11,"","Bilirubin (umol/L)","BILI",3,"CHEM",6.84,8.55,3,21,2.28,0.325714285714,2.85,0.407142857143,"","",null,"R2A1HI > 1.5","N",0],["CDISCPILOT01","1148","01-701-1148","Xanomeline High Dose",81,"Xanomeline High Dose",81,"2013-08-23","2014-02-20",57,"<65",1,"WHITE",1,"M","Y","","Y","         Week 20",20,null,null,"",null,"DERIVED","Bilirubin 1.5 x ULN","BILIHY",4,"HYLAW",0,0,null,null,null,null,null,null,"","Normal to Normal",1,"","",null],["CDISCPILOT01","1148","01-701-1148","Xanomeline High Dose",81,"Xanomeline High Dose",81,"2013-08-23","2014-02-20",57,"<65",1,"WHITE",1,"M","Y","","Y","         Week 20",20,null,null,"",null,"DERIVED","Transaminase 1.5 x ULN","TRANSHY",5,"HYLAW",0,0,null,null,null,null,null,null,"","Normal to Normal",1,"","",null],["CDISCPILOT01","1148","01-701-1148","Xanomeline High Dose",81,"Xanomeline High Dose",81,"2013-08-23","2014-02-20",57,"<65",1,"WHITE",1,"M","Y","","Y","         Week 20",20,null,null,"",null,"DERIVED","Total Bili 1.5 x ULN and Transaminase 1.5 x ULN","HYLAW",6,"HYLAW",0,0,null,null,null,null,null,null,"","Normal to Normal",1,"","",null],["CDISCPILOT01","1148","01-701-1148","Xanomeline High Dose",81,"Xanomeline High Dose",81,"2013-08-23","2014-02-20",57,"<65",1,"WHITE",1,"M","Y","","Y","         Week 24",24,170,"2014-02-08","WEEK 24",12,"","Alanine Aminotransferase (U/L)","ALT",1,"CHEM",37,34,6,43,6.16666666667,0.860465116279,5.66666666667,0.790697674419,"","",null,"R2A1HI > 1.5","N",0],["CDISCPILOT01","1148","01-701-1148","Xanomeline High Dose",81,"Xanomeline High Dose",81,"2013-08-23","2014-02-20",57,"<65",1,"WHITE",1,"M","Y","","Y","         Week 24",24,170,"2014-02-08","WEEK 24",12,"","Aspartate Aminotransferase (U/L)","AST",2,"CHEM",30,25,11,36,2.72727272727,0.833333333333,2.27272727273,0.694444444444,"","",null,"R2A1HI > 1.5","N",0],["CDISCPILOT01","1148","01-701-1148","Xanomeline High Dose",81,"Xanomeline High Dose",81,"2013-08-23","2014-02-20",57,"<65",1,"WHITE",1,"M","Y","","Y","         Week 24",24,170,"2014-02-08","WEEK 24",12,"","Bilirubin (umol/L)","BILI",3,"CHEM",6.84,8.55,3,21,2.28,0.325714285714,2.85,0.407142857143,"","",null,"R2A1HI > 1.5","N",0],["CDISCPILOT01","1148","01-701-1148","Xanomeline High Dose",81,"Xanomeline High Dose",81,"2013-08-23","2014-02-20",57,"<65",1,"WHITE",1,"M","Y","","Y","         Week 24",24,null,null,"",null,"DERIVED","Bilirubin 1.5 x ULN","BILIHY",4,"HYLAW",0,0,null,null,null,null,null,null,"","Normal to Normal",1,"","",null],["CDISCPILOT01","1148","01-701-1148","Xanomeline High Dose",81,"Xanomeline High Dose",81,"2013-08-23","2014-02-20",57,"<65",1,"WHITE",1,"M","Y","","Y","         Week 24",24,null,null,"",null,"DERIVED","Transaminase 1.5 x ULN","TRANSHY",5,"HYLAW",0,0,null,null,null,null,null,null,"","Normal to Normal",1,"","",null],["CDISCPILOT01","1148","01-701-1148","Xanomeline High Dose",81,"Xanomeline High Dose",81,"2013-08-23","2014-02-20",57,"<65",1,"WHITE",1,"M","Y","","Y","         Week 24",24,null,null,"",null,"DERIVED","Total Bili 1.5 x ULN and Transaminase 1.5 x ULN","HYLAW",6,"HYLAW",0,0,null,null,null,null,null,null,"","Normal to Normal",1,"","",null],["CDISCPILOT01","1153","01-701-1153","Placebo",0,"Placebo",0,"2013-09-23","2014-03-16",79,"65-80",2,"WHITE",1,"F","Y","","Y","        Baseline",0,-17,"2013-09-06","SCREENING 1",1,"","Alanine Aminotransferase (U/L)","ALT",1,"CHEM",13,13,6,32,2.16666666667,0.40625,2.16666666667,0.40625,"Y","",null,"R2A1HI > 1.5","N",0],["CDISCPILOT01","1153","01-701-1153","Placebo",0,"Placebo",0,"2013-09-23","2014-03-16",79,"65-80",2,"WHITE",1,"F","Y","","Y","        Baseline",0,-17,"2013-09-06","SCREENING 1",1,"","Aspartate Aminotransferase (U/L)","AST",2,"CHEM",24,24,9,34,2.66666666667,0.705882352941,2.66666666667,0.705882352941,"Y","",null,"R2A1HI > 1.5","N",0],["CDISCPILOT01","1153","01-701-1153","Placebo",0,"Placebo",0,"2013-09-23","2014-03-16",79,"65-80",2,"WHITE",1,"F","Y","","Y","        Baseline",0,-17,"2013-09-06","SCREENING 1",1,"","Bilirubin (umol/L)","BILI",3,"CHEM",5.13,5.13,3,21,1.71,0.244285714286,1.71,0.244285714286,"Y","",null,"R2A1HI > 1.5","N",0],["CDISCPILOT01","1153","01-701-1153","Placebo",0,"Placebo",0,"2013-09-23","2014-03-16",79,"65-80",2,"WHITE",1,"F","Y","","Y","        Baseline",0,null,null,"",null,"DERIVED","Bilirubin 1.5 x ULN","BILIHY",4,"HYLAW",0,0,null,null,null,null,null,null,"Y","Normal to Normal",1,"","",null],["CDISCPILOT01","1153","01-701-1153","Placebo",0,"Placebo",0,"2013-09-23","2014-03-16",79,"65-80",2,"WHITE",1,"F","Y","","Y","        Baseline",0,null,null,"",null,"DERIVED","Transaminase 1.5 x ULN","TRANSHY",5,"HYLAW",0,0,null,null,null,null,null,null,"Y","Normal to Normal",1,"","",null],["CDISCPILOT01","1153","01-701-1153","Placebo",0,"Placebo",0,"2013-09-23","2014-03-16",79,"65-80",2,"WHITE",1,"F","Y","","Y","        Baseline",0,null,null,"",null,"DERIVED","Total Bili 1.5 x ULN and Transaminase 1.5 x ULN","HYLAW",6,"HYLAW",0,0,null,null,null,null,null,null,"Y","Normal to Normal",1,"","",null],["CDISCPILOT01","1153","01-701-1153","Placebo",0,"Placebo",0,"2013-09-23","2014-03-16",79,"65-80",2,"WHITE",1,"F","Y","","Y","          Week 2",2,16,"2013-10-08","WEEK 2",4,"","Alanine Aminotransferase (U/L)","ALT",1,"CHEM",14,13,6,32,2.33333333333,0.4375,2.16666666667,0.40625,"","",null,"R2A1HI > 1.5","N",0],["CDISCPILOT01","1153","01-701-1153","Placebo",0,"Placebo",0,"2013-09-23","2014-03-16",79,"65-80",2,"WHITE",1,"F","Y","","Y","          Week 2",2,16,"2013-10-08","WEEK 2",4,"","Aspartate Aminotransferase (U/L)","AST",2,"CHEM",25,24,9,34,2.77777777778,0.735294117647,2.66666666667,0.705882352941,"","",null,"R2A1HI > 1.5","N",0],["CDISCPILOT01","1153","01-701-1153","Placebo",0,"Placebo",0,"2013-09-23","2014-03-16",79,"65-80",2,"WHITE",1,"F","Y","","Y","          Week 2",2,16,"2013-10-08","WEEK 2",4,"","Bilirubin (umol/L)","BILI",3,"CHEM",6.84,5.13,3,21,2.28,0.325714285714,1.71,0.244285714286,"","",null,"R2A1HI > 1.5","N",0],["CDISCPILOT01","1153","01-701-1153","Placebo",0,"Placebo",0,"2013-09-23","2014-03-16",79,"65-80",2,"WHITE",1,"F","Y","","Y","          Week 2",2,null,null,"",null,"DERIVED","Bilirubin 1.5 x ULN","BILIHY",4,"HYLAW",0,0,null,null,null,null,null,null,"","Normal to Normal",1,"","",null],["CDISCPILOT01","1153","01-701-1153","Placebo",0,"Placebo",0,"2013-09-23","2014-03-16",79,"65-80",2,"WHITE",1,"F","Y","","Y","          Week 2",2,null,null,"",null,"DERIVED","Transaminase 1.5 x ULN","TRANSHY",5,"HYLAW",0,0,null,null,null,null,null,null,"","Normal to Normal",1,"","",null],["CDISCPILOT01","1153","01-701-1153","Placebo",0,"Placebo",0,"2013-09-23","2014-03-16",79,"65-80",2,"WHITE",1,"F","Y","","Y","          Week 2",2,null,null,"",null,"DERIVED","Total Bili 1.5 x ULN and Transaminase 1.5 x ULN","HYLAW",6,"HYLAW",0,0,null,null,null,null,null,null,"","Normal to Normal",1,"","",null],["CDISCPILOT01","1153","01-701-1153","Placebo",0,"Placebo",0,"2013-09-23","2014-03-16",79,"65-80",2,"WHITE",1,"F","Y","","Y","          Week 4",4,27,"2013-10-19","WEEK 4",5,"","Alanine Aminotransferase (U/L)","ALT",1,"CHEM",14,13,6,32,2.33333333333,0.4375,2.16666666667,0.40625,"","",null,"R2A1HI > 1.5","N",0],["CDISCPILOT01","1153","01-701-1153","Placebo",0,"Placebo",0,"2013-09-23","2014-03-16",79,"65-80",2,"WHITE",1,"F","Y","","Y","          Week 4",4,27,"2013-10-19","WEEK 4",5,"","Aspartate Aminotransferase (U/L)","AST",2,"CHEM",22,24,9,34,2.44444444444,0.647058823529,2.66666666667,0.705882352941,"","",null,"R2A1HI > 1.5","N",0],["CDISCPILOT01","1153","01-701-1153","Placebo",0,"Placebo",0,"2013-09-23","2014-03-16",79,"65-80",2,"WHITE",1,"F","Y","","Y","          Week 4",4,27,"2013-10-19","WEEK 4",5,"","Bilirubin (umol/L)","BILI",3,"CHEM",6.84,5.13,3,21,2.28,0.325714285714,1.71,0.244285714286,"","",null,"R2A1HI > 1.5","N",0],["CDISCPILOT01","1153","01-701-1153","Placebo",0,"Placebo",0,"2013-09-23","2014-03-16",79,"65-80",2,"WHITE",1,"F","Y","","Y","          Week 4",4,null,null,"",null,"DERIVED","Bilirubin 1.5 x ULN","BILIHY",4,"HYLAW",0,0,null,null,null,null,null,null,"","Normal to Normal",1,"","",null],["CDISCPILOT01","1153","01-701-1153","Placebo",0,"Placebo",0,"2013-09-23","2014-03-16",79,"65-80",2,"WHITE",1,"F","Y","","Y","          Week 4",4,null,null,"",null,"DERIVED","Transaminase 1.5 x ULN","TRANSHY",5,"HYLAW",0,0,null,null,null,null,null,null,"","Normal to Normal",1,"","",null],["CDISCPILOT01","1153","01-701-1153","Placebo",0,"Placebo",0,"2013-09-23","2014-03-16",79,"65-80",2,"WHITE",1,"F","Y","","Y","          Week 4",4,null,null,"",null,"DERIVED","Total Bili 1.5 x ULN and Transaminase 1.5 x ULN","HYLAW",6,"HYLAW",0,0,null,null,null,null,null,null,"","Normal to Normal",1,"","",null],["CDISCPILOT01","1153","01-701-1153","Placebo",0,"Placebo",0,"2013-09-23","2014-03-16",79,"65-80",2,"WHITE",1,"F","Y","","Y","          Week 6",6,43,"2013-11-04","WEEK 6",7,"","Alanine Aminotransferase (U/L)","ALT",1,"CHEM",14,13,6,32,2.33333333333,0.4375,2.16666666667,0.40625,"","",null,"R2A1HI > 1.5","N",0],["CDISCPILOT01","1153","01-701-1153","Placebo",0,"Placebo",0,"2013-09-23","2014-03-16",79,"65-80",2,"WHITE",1,"F","Y","","Y","          Week 6",6,43,"2013-11-04","WEEK 6",7,"","Aspartate Aminotransferase (U/L)","AST",2,"CHEM",22,24,9,34,2.44444444444,0.647058823529,2.66666666667,0.705882352941,"","",null,"R2A1HI > 1.5","N",0],["CDISCPILOT01","1153","01-701-1153","Placebo",0,"Placebo",0,"2013-09-23","2014-03-16",79,"65-80",2,"WHITE",1,"F","Y","","Y","          Week 6",6,43,"2013-11-04","WEEK 6",7,"","Bilirubin (umol/L)","BILI",3,"CHEM",6.84,5.13,3,21,2.28,0.325714285714,1.71,0.244285714286,"","",null,"R2A1HI > 1.5","N",0],["CDISCPILOT01","1153","01-701-1153","Placebo",0,"Placebo",0,"2013-09-23","2014-03-16",79,"65-80",2,"WHITE",1,"F","Y","","Y","          Week 6",6,null,null,"",null,"DERIVED","Bilirubin 1.5 x ULN","BILIHY",4,"HYLAW",0,0,null,null,null,null,null,null,"","Normal to Normal",1,"","",null],["CDISCPILOT01","1153","01-701-1153","Placebo",0,"Placebo",0,"2013-09-23","2014-03-16",79,"65-80",2,"WHITE",1,"F","Y","","Y","          Week 6",6,null,null,"",null,"DERIVED","Transaminase 1.5 x ULN","TRANSHY",5,"HYLAW",0,0,null,null,null,null,null,null,"","Normal to Normal",1,"","",null],["CDISCPILOT01","1153","01-701-1153","Placebo",0,"Placebo",0,"2013-09-23","2014-03-16",79,"65-80",2,"WHITE",1,"F","Y","","Y","          Week 6",6,null,null,"",null,"DERIVED","Total Bili 1.5 x ULN and Transaminase 1.5 x ULN","HYLAW",6,"HYLAW",0,0,null,null,null,null,null,null,"","Normal to Normal",1,"","",null],["CDISCPILOT01","1153","01-701-1153","Placebo",0,"Placebo",0,"2013-09-23","2014-03-16",79,"65-80",2,"WHITE",1,"F","Y","","Y","          Week 8",8,57,"2013-11-18","WEEK 8",8,"","Alanine Aminotransferase (U/L)","ALT",1,"CHEM",11,13,6,32,1.83333333333,0.34375,2.16666666667,0.40625,"","",null,"R2A1HI > 1.5","N",0],["CDISCPILOT01","1153","01-701-1153","Placebo",0,"Placebo",0,"2013-09-23","2014-03-16",79,"65-80",2,"WHITE",1,"F","Y","","Y","          Week 8",8,57,"2013-11-18","WEEK 8",8,"","Aspartate Aminotransferase (U/L)","AST",2,"CHEM",21,24,9,34,2.33333333333,0.617647058824,2.66666666667,0.705882352941,"","",null,"R2A1HI > 1.5","N",0],["CDISCPILOT01","1153","01-701-1153","Placebo",0,"Placebo",0,"2013-09-23","2014-03-16",79,"65-80",2,"WHITE",1,"F","Y","","Y","          Week 8",8,57,"2013-11-18","WEEK 8",8,"","Bilirubin (umol/L)","BILI",3,"CHEM",5.13,5.13,3,21,1.71,0.244285714286,1.71,0.244285714286,"","",null,"R2A1HI > 1.5","N",0],["CDISCPILOT01","1153","01-701-1153","Placebo",0,"Placebo",0,"2013-09-23","2014-03-16",79,"65-80",2,"WHITE",1,"F","Y","","Y","          Week 8",8,null,null,"",null,"DERIVED","Bilirubin 1.5 x ULN","BILIHY",4,"HYLAW",0,0,null,null,null,null,null,null,"","Normal to Normal",1,"","",null],["CDISCPILOT01","1153","01-701-1153","Placebo",0,"Placebo",0,"2013-09-23","2014-03-16",79,"65-80",2,"WHITE",1,"F","Y","","Y","          Week 8",8,null,null,"",null,"DERIVED","Transaminase 1.5 x ULN","TRANSHY",5,"HYLAW",0,0,null,null,null,null,null,null,"","Normal to Normal",1,"","",null],["CDISCPILOT01","1153","01-701-1153","Placebo",0,"Placebo",0,"2013-09-23","2014-03-16",79,"65-80",2,"WHITE",1,"F","Y","","Y","          Week 8",8,null,null,"",null,"DERIVED","Total Bili 1.5 x ULN and Transaminase 1.5 x ULN","HYLAW",6,"HYLAW",0,0,null,null,null,null,null,null,"","Normal to Normal",1,"","",null],["CDISCPILOT01","1153","01-701-1153","Placebo",0,"Placebo",0,"2013-09-23","2014-03-16",79,"65-80",2,"WHITE",1,"F","Y","","Y","         Week 12",12,85,"2013-12-16","WEEK 12",9,"","Alanine Aminotransferase (U/L)","ALT",1,"CHEM",13,13,6,32,2.16666666667,0.40625,2.16666666667,0.40625,"","",null,"R2A1HI > 1.5","N",0],["CDISCPILOT01","1153","01-701-1153","Placebo",0,"Placebo",0,"2013-09-23","2014-03-16",79,"65-80",2,"WHITE",1,"F","Y","","Y","         Week 12",12,85,"2013-12-16","WEEK 12",9,"","Aspartate Aminotransferase (U/L)","AST",2,"CHEM",22,24,9,34,2.44444444444,0.647058823529,2.66666666667,0.705882352941,"","",null,"R2A1HI > 1.5","N",0],["CDISCPILOT01","1153","01-701-1153","Placebo",0,"Placebo",0,"2013-09-23","2014-03-16",79,"65-80",2,"WHITE",1,"F","Y","","Y","         Week 12",12,85,"2013-12-16","WEEK 12",9,"","Bilirubin (umol/L)","BILI",3,"CHEM",6.84,5.13,3,21,2.28,0.325714285714,1.71,0.244285714286,"","",null,"R2A1HI > 1.5","N",0],["CDISCPILOT01","1153","01-701-1153","Placebo",0,"Placebo",0,"2013-09-23","2014-03-16",79,"65-80",2,"WHITE",1,"F","Y","","Y","         Week 12",12,null,null,"",null,"DERIVED","Bilirubin 1.5 x ULN","BILIHY",4,"HYLAW",0,0,null,null,null,null,null,null,"","Normal to Normal",1,"","",null],["CDISCPILOT01","1153","01-701-1153","Placebo",0,"Placebo",0,"2013-09-23","2014-03-16",79,"65-80",2,"WHITE",1,"F","Y","","Y","         Week 12",12,null,null,"",null,"DERIVED","Transaminase 1.5 x ULN","TRANSHY",5,"HYLAW",0,0,null,null,null,null,null,null,"","Normal to Normal",1,"","",null],["CDISCPILOT01","1153","01-701-1153","Placebo",0,"Placebo",0,"2013-09-23","2014-03-16",79,"65-80",2,"WHITE",1,"F","Y","","Y","         Week 12",12,null,null,"",null,"DERIVED","Total Bili 1.5 x ULN and Transaminase 1.5 x ULN","HYLAW",6,"HYLAW",0,0,null,null,null,null,null,null,"","Normal to Normal",1,"","",null],["CDISCPILOT01","1153","01-701-1153","Placebo",0,"Placebo",0,"2013-09-23","2014-03-16",79,"65-80",2,"WHITE",1,"F","Y","","Y","         Week 16",16,108,"2014-01-08","WEEK 16",10,"","Alanine Aminotransferase (U/L)","ALT",1,"CHEM",17,13,6,32,2.83333333333,0.53125,2.16666666667,0.40625,"","",null,"R2A1HI > 1.5","N",0],["CDISCPILOT01","1153","01-701-1153","Placebo",0,"Placebo",0,"2013-09-23","2014-03-16",79,"65-80",2,"WHITE",1,"F","Y","","Y","         Week 16",16,108,"2014-01-08","WEEK 16",10,"","Aspartate Aminotransferase (U/L)","AST",2,"CHEM",25,24,9,34,2.77777777778,0.735294117647,2.66666666667,0.705882352941,"","",null,"R2A1HI > 1.5","N",0],["CDISCPILOT01","1153","01-701-1153","Placebo",0,"Placebo",0,"2013-09-23","2014-03-16",79,"65-80",2,"WHITE",1,"F","Y","","Y","         Week 16",16,108,"2014-01-08","WEEK 16",10,"","Bilirubin (umol/L)","BILI",3,"CHEM",8.55,5.13,3,21,2.85,0.407142857143,1.71,0.244285714286,"","",null,"R2A1HI > 1.5","N",0],["CDISCPILOT01","1153","01-701-1153","Placebo",0,"Placebo",0,"2013-09-23","2014-03-16",79,"65-80",2,"WHITE",1,"F","Y","","Y","         Week 16",16,null,null,"",null,"DERIVED","Bilirubin 1.5 x ULN","BILIHY",4,"HYLAW",0,0,null,null,null,null,null,null,"","Normal to Normal",1,"","",null],["CDISCPILOT01","1153","01-701-1153","Placebo",0,"Placebo",0,"2013-09-23","2014-03-16",79,"65-80",2,"WHITE",1,"F","Y","","Y","         Week 16",16,null,null,"",null,"DERIVED","Transaminase 1.5 x ULN","TRANSHY",5,"HYLAW",0,0,null,null,null,null,null,null,"","Normal to Normal",1,"","",null],["CDISCPILOT01","1153","01-701-1153","Placebo",0,"Placebo",0,"2013-09-23","2014-03-16",79,"65-80",2,"WHITE",1,"F","Y","","Y","         Week 16",16,null,null,"",null,"DERIVED","Total Bili 1.5 x ULN and Transaminase 1.5 x ULN","HYLAW",6,"HYLAW",0,0,null,null,null,null,null,null,"","Normal to Normal",1,"","",null],["CDISCPILOT01","1153","01-701-1153","Placebo",0,"Placebo",0,"2013-09-23","2014-03-16",79,"65-80",2,"WHITE",1,"F","Y","","Y","         Week 20",20,142,"2014-02-11","WEEK 20",11,"","Alanine Aminotransferase (U/L)","ALT",1,"CHEM",14,13,6,32,2.33333333333,0.4375,2.16666666667,0.40625,"","",null,"R2A1HI > 1.5","N",0],["CDISCPILOT01","1153","01-701-1153","Placebo",0,"Placebo",0,"2013-09-23","2014-03-16",79,"65-80",2,"WHITE",1,"F","Y","","Y","         Week 20",20,142,"2014-02-11","WEEK 20",11,"","Aspartate Aminotransferase (U/L)","AST",2,"CHEM",24,24,9,34,2.66666666667,0.705882352941,2.66666666667,0.705882352941,"","",null,"R2A1HI > 1.5","N",0],["CDISCPILOT01","1153","01-701-1153","Placebo",0,"Placebo",0,"2013-09-23","2014-03-16",79,"65-80",2,"WHITE",1,"F","Y","","Y","         Week 20",20,142,"2014-02-11","WEEK 20",11,"","Bilirubin (umol/L)","BILI",3,"CHEM",5.13,5.13,3,21,1.71,0.244285714286,1.71,0.244285714286,"","",null,"R2A1HI > 1.5","N",0],["CDISCPILOT01","1153","01-701-1153","Placebo",0,"Placebo",0,"2013-09-23","2014-03-16",79,"65-80",2,"WHITE",1,"F","Y","","Y","         Week 20",20,null,null,"",null,"DERIVED","Bilirubin 1.5 x ULN","BILIHY",4,"HYLAW",0,0,null,null,null,null,null,null,"","Normal to Normal",1,"","",null],["CDISCPILOT01","1153","01-701-1153","Placebo",0,"Placebo",0,"2013-09-23","2014-03-16",79,"65-80",2,"WHITE",1,"F","Y","","Y","         Week 20",20,null,null,"",null,"DERIVED","Transaminase 1.5 x ULN","TRANSHY",5,"HYLAW",0,0,null,null,null,null,null,null,"","Normal to Normal",1,"","",null],["CDISCPILOT01","1153","01-701-1153","Placebo",0,"Placebo",0,"2013-09-23","2014-03-16",79,"65-80",2,"WHITE",1,"F","Y","","Y","         Week 20",20,null,null,"",null,"DERIVED","Total Bili 1.5 x ULN and Transaminase 1.5 x ULN","HYLAW",6,"HYLAW",0,0,null,null,null,null,null,null,"","Normal to Normal",1,"","",null],["CDISCPILOT01","1153","01-701-1153","Placebo",0,"Placebo",0,"2013-09-23","2014-03-16",79,"65-80",2,"WHITE",1,"F","Y","","Y","         Week 24",24,170,"2014-03-11","WEEK 24",12,"","Alanine Aminotransferase (U/L)","ALT",1,"CHEM",13,13,6,32,2.16666666667,0.40625,2.16666666667,0.40625,"","",null,"R2A1HI > 1.5","N",0],["CDISCPILOT01","1153","01-701-1153","Placebo",0,"Placebo",0,"2013-09-23","2014-03-16",79,"65-80",2,"WHITE",1,"F","Y","","Y","         Week 24",24,170,"2014-03-11","WEEK 24",12,"","Aspartate Aminotransferase (U/L)","AST",2,"CHEM",22,24,9,34,2.44444444444,0.647058823529,2.66666666667,0.705882352941,"","",null,"R2A1HI > 1.5","N",0],["CDISCPILOT01","1153","01-701-1153","Placebo",0,"Placebo",0,"2013-09-23","2014-03-16",79,"65-80",2,"WHITE",1,"F","Y","","Y","         Week 24",24,170,"2014-03-11","WEEK 24",12,"","Bilirubin (umol/L)","BILI",3,"CHEM",6.84,5.13,3,21,2.28,0.325714285714,1.71,0.244285714286,"","",null,"R2A1HI > 1.5","N",0],["CDISCPILOT01","1153","01-701-1153","Placebo",0,"Placebo",0,"2013-09-23","2014-03-16",79,"65-80",2,"WHITE",1,"F","Y","","Y","         Week 24",24,null,null,"",null,"DERIVED","Bilirubin 1.5 x ULN","BILIHY",4,"HYLAW",0,0,null,null,null,null,null,null,"","Normal to Normal",1,"","",null],["CDISCPILOT01","1153","01-701-1153","Placebo",0,"Placebo",0,"2013-09-23","2014-03-16",79,"65-80",2,"WHITE",1,"F","Y","","Y","         Week 24",24,null,null,"",null,"DERIVED","Transaminase 1.5 x ULN","TRANSHY",5,"HYLAW",0,0,null,null,null,null,null,null,"","Normal to Normal",1,"","",null],["CDISCPILOT01","1153","01-701-1153","Placebo",0,"Placebo",0,"2013-09-23","2014-03-16",79,"65-80",2,"WHITE",1,"F","Y","","Y","         Week 24",24,null,null,"",null,"DERIVED","Total Bili 1.5 x ULN and Transaminase 1.5 x ULN","HYLAW",6,"HYLAW",0,0,null,null,null,null,null,null,"","Normal to Normal",1,"","",null],["CDISCPILOT01","1180","01-701-1180","Xanomeline High Dose",81,"Xanomeline High Dose",81,"2013-02-12","2013-03-18",56,"<65",1,"WHITE",1,"M","N","Y","Y","        Baseline",0,-15,"2013-01-28","SCREENING 1",1,"","Alanine Aminotransferase (U/L)","ALT",1,"CHEM",29,29,6,43,4.83333333333,0.674418604651,4.83333333333,0.674418604651,"Y","",null,"R2A1HI > 1.5","N",0],["CDISCPILOT01","1180","01-701-1180","Xanomeline High Dose",81,"Xanomeline High Dose",81,"2013-02-12","2013-03-18",56,"<65",1,"WHITE",1,"M","N","Y","Y","        Baseline",0,-15,"2013-01-28","SCREENING 1",1,"","Aspartate Aminotransferase (U/L)","AST",2,"CHEM",21,21,11,36,1.90909090909,0.583333333333,1.90909090909,0.583333333333,"Y","",null,"R2A1HI > 1.5","N",0],["CDISCPILOT01","1180","01-701-1180","Xanomeline High Dose",81,"Xanomeline High Dose",81,"2013-02-12","2013-03-18",56,"<65",1,"WHITE",1,"M","N","Y","Y","        Baseline",0,-15,"2013-01-28","SCREENING 1",1,"","Bilirubin (umol/L)","BILI",3,"CHEM",11.97,11.97,3,21,3.99,0.57,3.99,0.57,"Y","",null,"R2A1HI > 1.5","N",0],["CDISCPILOT01","1180","01-701-1180","Xanomeline High Dose",81,"Xanomeline High Dose",81,"2013-02-12","2013-03-18",56,"<65",1,"WHITE",1,"M","N","Y","Y","        Baseline",0,null,null,"",null,"DERIVED","Bilirubin 1.5 x ULN","BILIHY",4,"HYLAW",0,0,null,null,null,null,null,null,"Y","Normal to Normal",1,"","",null],["CDISCPILOT01","1180","01-701-1180","Xanomeline High Dose",81,"Xanomeline High Dose",81,"2013-02-12","2013-03-18",56,"<65",1,"WHITE",1,"M","N","Y","Y","        Baseline",0,null,null,"",null,"DERIVED","Transaminase 1.5 x ULN","TRANSHY",5,"HYLAW",0,0,null,null,null,null,null,null,"Y","Normal to Normal",1,"","",null],["CDISCPILOT01","1180","01-701-1180","Xanomeline High Dose",81,"Xanomeline High Dose",81,"2013-02-12","2013-03-18",56,"<65",1,"WHITE",1,"M","N","Y","Y","        Baseline",0,null,null,"",null,"DERIVED","Total Bili 1.5 x ULN and Transaminase 1.5 x ULN","HYLAW",6,"HYLAW",0,0,null,null,null,null,null,null,"Y","Normal to Normal",1,"","",null],["CDISCPILOT01","1180","01-701-1180","Xanomeline High Dose",81,"Xanomeline High Dose",81,"2013-02-12","2013-03-18",56,"<65",1,"WHITE",1,"M","N","Y","Y","          Week 2",2,14,"2013-02-25","WEEK 2",4,"","Alanine Aminotransferase (U/L)","ALT",1,"CHEM",29,29,6,43,4.83333333333,0.674418604651,4.83333333333,0.674418604651,"","",null,"R2A1HI > 1.5","N",0],["CDISCPILOT01","1180","01-701-1180","Xanomeline High Dose",81,"Xanomeline High Dose",81,"2013-02-12","2013-03-18",56,"<65",1,"WHITE",1,"M","N","Y","Y","          Week 2",2,14,"2013-02-25","WEEK 2",4,"","Aspartate Aminotransferase (U/L)","AST",2,"CHEM",25,21,11,36,2.27272727273,0.694444444444,1.90909090909,0.583333333333,"","",null,"R2A1HI > 1.5","N",0],["CDISCPILOT01","1180","01-701-1180","Xanomeline High Dose",81,"Xanomeline High Dose",81,"2013-02-12","2013-03-18",56,"<65",1,"WHITE",1,"M","N","Y","Y"