STUDYID,USUBJID,TRT01A,AGE,PFS,CNSR,BESTRESP,DCSREAS
SYNTH-ONC-001,SYNTH-ONC-001-0001,Treatment,67,429,0,SD,PROGRESSIVE DISEASE
SYNTH-ONC-001,SYNTH-ONC-001-0002,Treatment,53,84,0,,PROGRESSIVE DISEASE
SYNTH-ONC-001,SYNTH-ONC-001-0003,Treatment,51,491,0,PR,PROGRESSIVE DISEASE
SYNTH-ONC-001,SYNTH-ONC-001-0004,Placebo,42,92,0,SD,PROGRESSIVE DISEASE
SYNTH-ONC-001,SYNTH-ONC-001-0005,Placebo,47,136,0,SD,PROGRESSIVE DISEASE
SYNTH-ONC-001,SYNTH-ONC-001-0006,Placebo,59,102,0,PD,PROGRESSIVE DISEASE
SYNTH-ONC-001,SYNTH-ONC-001-0007,Treatment,41,319,0,SD,PROGRESSIVE DISEASE
SYNTH-ONC-001,SYNTH-ONC-001-0008,Placebo,35,178,0,SD,PROGRESSIVE DISEASE
SYNTH-ONC-001,SYNTH-ONC-001-0009,Placebo,46,452,1,SD,WITHDRAWAL BY SUBJECT
SYNTH-ONC-001,SYNTH-ONC-001-0010,Treatment,63,192,0,SD,PROGRESSIVE DISEASE
SYNTH-ONC-001,SYNTH-ONC-001-0011,Treatment,72,850,0,PR,PROGRESSIVE DISEASE
SYNTH-ONC-001,SYNTH-ONC-001-0012,Placebo,48,84,0,,PROGRESSIVE DISEASE
SYNTH-ONC-001,SYNTH-ONC-001-0013,Placebo,39,84,0,,PROGRESSIVE DISEASE
SYNTH-ONC-001,SYNTH-ONC-001-0014,Treatment,51,84,0,,PROGRESSIVE DISEASE
SYNTH-ONC-001,SYNTH-ONC-001-0015,Placebo,56,91,0,PR,PROGRESSIVE DISEASE
SYNTH-ONC-001,SYNTH-ONC-001-0016,Placebo,60,84,0,,PROGRESSIVE DISEASE
SYNTH-ONC-001,SYNTH-ONC-001-0017,Treatment,76,308,1,PR,COMPLETED
SYNTH-ONC-001,SYNTH-ONC-001-0018,Placebo,57,84,0,,PROGRESSIVE DISEASE
SYNTH-ONC-001,SYNTH-ONC-001-0019,Treatment,71,141,0,SD,PROGRESSIVE DISEASE
SYNTH-ONC-001,SYNTH-ONC-001-0020,Treatment,50,327,0,SD,PROGRESSIVE DISEASE
SYNTH-ONC-001,SYNTH-ONC-001-0021,Placebo,55,84,0,,PROGRESSIVE DISEASE
SYNTH-ONC-001,SYNTH-ONC-001-0022,Treatment,49,84,0,,PROGRESSIVE DISEASE
SYNTH-ONC-001,SYNTH-ONC-001-0023,Placebo,48,499,0,SD,PROGRESSIVE DISEASE
SYNTH-ONC-001,SYNTH-ONC-001-0024,Treatment,52,877,0,SD,PROGRESSIVE DISEASE
SYNTH-ONC-001,SYNTH-ONC-001-0025,Treatment,52,853,0,SD,PROGRESSIVE DISEASE
SYNTH-ONC-001,SYNTH-ONC-001-0026,Treatment,48,84,0,,PROGRESSIVE DISEASE
SYNTH-ONC-001,SYNTH-ONC-001-0027,Treatment,49,530,0,PR,PROGRESSIVE DISEASE
SYNTH-ONC-001,SYNTH-ONC-001-0028,Treatment,65,84,0,,PROGRESSIVE DISEASE
SYNTH-ONC-001,SYNTH-ONC-001-0029,Placebo,76,375,1,SD,COMPLETED
SYNTH-ONC-001,SYNTH-ONC-001-0030,Placebo,50,384,0,SD,PROGRESSIVE DISEASE
SYNTH-ONC-001,SYNTH-ONC-001-0031,Treatment,51,124,0,SD,PROGRESSIVE DISEASE
SYNTH-ONC-001,SYNTH-ONC-001-0032,Treatment,60,194,0,PD,PROGRESSIVE DISEASE
SYNTH-ONC-001,SYNTH-ONC-001-0033,Treatment,80,221,0,SD,PROGRESSIVE DISEASE
SYNTH-ONC-001,SYNTH-ONC-001-0034,Treatment,55,633,0,PD,PROGRESSIVE DISEASE
SYNTH-ONC-001,SYNTH-ONC-001-0035,Placebo,64,244,0,SD,PROGRESSIVE DISEASE
SYNTH-ONC-001,SYNTH-ONC-001-0036,Placebo,70,127,0,SD,PROGRESSIVE DISEASE
SYNTH-ONC-001,SYNTH-ONC-001-0037,Placebo,58,84,0,,PROGRESSIVE DISEASE
SYNTH-ONC-001,SYNTH-ONC-001-0038,Placebo,64,272,0,SD,PROGRESSIVE DISEASE
SYNTH-ONC-001,SYNTH-ONC-001-0039,Placebo,61,145,0,SD,PROGRESSIVE DISEASE
SYNTH-ONC-001,SYNTH-ONC-001-0040,Treatment,65,503,1,SD,WITHDRAWAL BY SUBJECT
SYNTH-ONC-001,SYNTH-ONC-001-0041,Treatment,44,246,1,SD,COMPLETED
SYNTH-ONC-001,SYNTH-ONC-001-0042,Placebo,57,84,0,,PROGRESSIVE DISEASE
SYNTH-ONC-001,SYNTH-ONC-001-0043,Treatment,59,316,0,PD,PROGRESSIVE DISEASE
SYNTH-ONC-001,SYNTH-ONC-001-0044,Treatment,59,764,0,SD,PROGRESSIVE DISEASE
SYNTH-ONC-001,SYNTH-ONC-001-0045,Placebo,66,319,0,SD,PROGRESSIVE DISEASE
SYNTH-ONC-001,SYNTH-ONC-001-0046,Placebo,59,320,0,PR,PROGRESSIVE DISEASE
SYNTH-ONC-001,SYNTH-ONC-001-0047,Treatment,43,542,1,PR,WITHDRAWAL BY SUBJECT
SYNTH-ONC-001,SYNTH-ONC-001-0048,Treatment,60,137,0,SD,PROGRESSIVE DISEASE
SYNTH-ONC-001,SYNTH-ONC-001-0049,Placebo,46,259,0,PD,PROGRESSIVE DISEASE
SYNTH-ONC-001,SYNTH-ONC-001-0050,Treatment,48,731,0,SD,PROGRESSIVE DISEASE
SYNTH-ONC-001,SYNTH-ONC-001-0051,Placebo,50,470,0,SD,PROGRESSIVE DISEASE
SYNTH-ONC-001,SYNTH-ONC-001-0052,Placebo,53,339,0,SD,PROGRESSIVE DISEASE
SYNTH-ONC-001,SYNTH-ONC-001-0053,Treatment,39,621,0,SD,PROGRESSIVE DISEASE
SYNTH-ONC-001,SYNTH-ONC-001-0054,Placebo,66,87,0,SD,PROGRESSIVE DISEASE
SYNTH-ONC-001,SYNTH-ONC-001-0055,Placebo,43,715,0,SD,PROGRESSIVE DISEASE
SYNTH-ONC-001,SYNTH-ONC-001-0056,Treatment,70,291,0,SD,PROGRESSIVE DISEASE
SYNTH-ONC-001,SYNTH-ONC-001-0057,Placebo,43,84,0,,PROGRESSIVE DISEASE
SYNTH-ONC-001,SYNTH-ONC-001-0058,Treatment,67,473,0,SD,PROGRESSIVE DISEASE
SYNTH-ONC-001,SYNTH-ONC-001-0059,Placebo,54,84,0,,PROGRESSIVE DISEASE
SYNTH-ONC-001,SYNTH-ONC-001-0060,Treatment,37,84,0,,PROGRESSIVE DISEASE
SYNTH-ONC-001,SYNTH-ONC-001-0061,Placebo,44,224,0,SD,PROGRESSIVE DISEASE
SYNTH-ONC-001,SYNTH-ONC-001-0062,Treatment,68,590,0,PR,PROGRESSIVE DISEASE
SYNTH-ONC-001,SYNTH-ONC-001-0063,Treatment,59,181,0,SD,PROGRESSIVE DISEASE
SYNTH-ONC-001,SYNTH-ONC-001-0064,Treatment,54,84,0,,PROGRESSIVE DISEASE
SYNTH-ONC-001,SYNTH-ONC-001-0065,Treatment,32,108,0,SD,PROGRESSIVE DISEASE
SYNTH-ONC-001,SYNTH-ONC-001-0066,Placebo,68,195,0,SD,PROGRESSIVE DISEASE
SYNTH-ONC-001,SYNTH-ONC-001-0067,Treatment,73,637,0,SD,PROGRESSIVE DISEASE
SYNTH-ONC-001,SYNTH-ONC-001-0068,Placebo,71,106,0,SD,PROGRESSIVE DISEASE
SYNTH-ONC-001,SYNTH-ONC-001-0069,Treatment,48,139,1,PR,COMPLETED
SYNTH-ONC-001,SYNTH-ONC-001-0070,Placebo,58,287,0,PR,PROGRESSIVE DISEASE
SYNTH-ONC-001,SYNTH-ONC-001-0071,Treatment,59,201,0,SD,PROGRESSIVE DISEASE
SYNTH-ONC-001,SYNTH-ONC-001-0072,Placebo,39,183,0,SD,PROGRESSIVE DISEASE
SYNTH-ONC-001,SYNTH-ONC-001-0073,Placebo,56,600,0,PR,PROGRESSIVE DISEASE
SYNTH-ONC-001,SYNTH-ONC-001-0074,Treatment,65,110,0,SD,PROGRESSIVE DISEASE
SYNTH-ONC-001,SYNTH-ONC-001-0075,Placebo,62,359,0,SD,PROGRESSIVE DISEASE
SYNTH-ONC-001,SYNTH-ONC-001-0076,Placebo,43,251,1,PR,COMPLETED
SYNTH-ONC-001,SYNTH-ONC-001-0077,Treatment,46,225,0,PR,PROGRESSIVE DISEASE
SYNTH-ONC-001,SYNTH-ONC-001-0078,Placebo,62,103,0,SD,PROGRESSIVE DISEASE
SYNTH-ONC-001,SYNTH-ONC-001-0079,Placebo,61,120,0,SD,PROGRESSIVE DISEASE
SYNTH-ONC-001,SYNTH-ONC-001-0080,Placebo,32,84,0,,PROGRESSIVE DISEASE
SYNTH-ONC-001,SYNTH-ONC-001-0081,Treatment,30,84,0,,PROGRESSIVE DISEASE
SYNTH-ONC-001,SYNTH-ONC-001-0082,Treatment,54,1145,0,PR,PROGRESSIVE DISEASE
SYNTH-ONC-001,SYNTH-ONC-001-0083,Treatment,49,257,0,PR,PROGRESSIVE DISEASE
SYNTH-ONC-001,SYNTH-ONC-001-0084,Placebo,52,349,1,SD,COMPLETED
SYNTH-ONC-001,SYNTH-ONC-001-0085,Placebo,50,277,0,SD,PROGRESSIVE DISEASE
SYNTH-ONC-001,SYNTH-ONC-001-0086,Treatment,64,1379,0,SD,PROGRESSIVE DISEASE
SYNTH-ONC-001,SYNTH-ONC-001-0087,Placebo,56,230,0,PR,PROGRESSIVE DISEASE
SYNTH-ONC-001,SYNTH-ONC-001-0088,Treatment,57,84,0,,PROGRESSIVE DISEASE
SYNTH-ONC-001,SYNTH-ONC-001-0089,Placebo,41,410,1,PD,COMPLETED
SYNTH-ONC-001,SYNTH-ONC-001-0090,Treatment,21,131,0,SD,PROGRESSIVE DISEASE
SYNTH-ONC-001,SYNTH-ONC-001-0091,Treatment,66,84,0,,PROGRESSIVE DISEASE
SYNTH-ONC-001,SYNTH-ONC-001-0092,Placebo,76,309,0,SD,PROGRESSIVE DISEASE
SYNTH-ONC-001,SYNTH-ONC-001-0093,Placebo,51,118,0,SD,PROGRESSIVE DISEASE
SYNTH-ONC-001,SYNTH-ONC-001-0094,Treatment,57,367,0,SD,PROGRESSIVE DISEASE
SYNTH-ONC-001,SYNTH-ONC-001-0095,Treatment,58,229,0,SD,PROGRESSIVE DISEASE
SYNTH-ONC-001,SYNTH-ONC-001-0096,Placebo,71,113,0,SD,PROGRESSIVE DISEASE
SYNTH-ONC-001,SYNTH-ONC-001-0097,Placebo,63,317,0,SD,PROGRESSIVE DISEASE
SYNTH-ONC-001,SYNTH-ONC-001-0098,Treatment,59,468,0,SD,PROGRESSIVE DISEASE
SYNTH-ONC-001,SYNTH-ONC-001-0099,Treatment,55,732,0,SD,PROGRESSIVE DISEASE
SYNTH-ONC-001,SYNTH-ONC-001-0100,Placebo,55,904,0,PR,PROGRESSIVE DISEASE
SYNTH-ONC-001,SYNTH-ONC-001-0101,Treatment,40,169,0,SD,PROGRESSIVE DISEASE
SYNTH-ONC-001,SYNTH-ONC-001-0102,Treatment,51,84,0,,PROGRESSIVE DISEASE
SYNTH-ONC-001,SYNTH-ONC-001-0103,Placebo,63,84,0,,PROGRESSIVE DISEASE
SYNTH-ONC-001,SYNTH-ONC-001-0104,Placebo,52,84,0,,PROGRESSIVE DISEASE
SYNTH-ONC-001,SYNTH-ONC-001-0105,Placebo,55,84,0,,PROGRESSIVE DISEASE
SYNTH-ONC-001,SYNTH-ONC-001-0106,Placebo,43,84,0,,PROGRESSIVE DISEASE
SYNTH-ONC-001,SYNTH-ONC-001-0107,Treatment,59,670,0,PR,PROGRESSIVE DISEASE
SYNTH-ONC-001,SYNTH-ONC-001-0108,Treatment,40,113,0,SD,PROGRESSIVE DISEASE
SYNTH-ONC-001,SYNTH-ONC-001-0109,Placebo,57,84,0,,PROGRESSIVE DISEASE
SYNTH-ONC-001,SYNTH-ONC-001-0110,Placebo,53,610,0,SD,PROGRESSIVE DISEASE
SYNTH-ONC-001,SYNTH-ONC-001-0111,Placebo,37,173,0,SD,PROGRESSIVE DISEASE
SYNTH-ONC-001,SYNTH-ONC-001-0112,Treatment,65,514,1,SD,COMPLETED
SYNTH-ONC-001,SYNTH-ONC-001-0113,Placebo,53,87,1,PD,COMPLETED
SYNTH-ONC-001,SYNTH-ONC-001-0114,Placebo,73,84,0,,PROGRESSIVE DISEASE
SYNTH-ONC-001,SYNTH-ONC-001-0115,Treatment,69,91,0,SD,PROGRESSIVE DISEASE
SYNTH-ONC-001,SYNTH-ONC-001-0116,Placebo,46,84,0,,PROGRESSIVE DISEASE
SYNTH-ONC-001,SYNTH-ONC-001-0117,Treatment,47,1103,0,SD,PROGRESSIVE DISEASE
SYNTH-ONC-001,SYNTH-ONC-001-0118,Treatment,43,347,0,PD,PROGRESSIVE DISEASE
SYNTH-ONC-001,SYNTH-ONC-001-0119,Placebo,39,177,0,SD,PROGRESSIVE DISEASE
SYNTH-ONC-001,SYNTH-ONC-001-0120,Treatment,50,253,0,PR,PROGRESSIVE DISEASE
SYNTH-ONC-001,SYNTH-ONC-001-0121,Treatment,69,586,1,SD,COMPLETED
SYNTH-ONC-001,SYNTH-ONC-001-0122,Placebo,35,190,0,SD,PROGRESSIVE DISEASE
SYNTH-ONC-001,SYNTH-ONC-001-0123,Placebo,63,439,0,SD,PROGRESSIVE DISEASE
SYNTH-ONC-001,SYNTH-ONC-001-0124,Placebo,62,96,0,SD,PROGRESSIVE DISEASE
SYNTH-ONC-001,SYNTH-ONC-001-0125,Treatment,60,84,0,,PROGRESSIVE DISEASE
SYNTH-ONC-001,SYNTH-ONC-001-0126,Treatment,62,139,0,PD,PROGRESSIVE DISEASE
SYNTH-ONC-001,SYNTH-ONC-001-0127,Placebo,43,84,0,,PROGRESSIVE DISEASE
SYNTH-ONC-001,SYNTH-ONC-001-0128,Placebo,62,232,0,PR,PROGRESSIVE DISEASE
SYNTH-ONC-001,SYNTH-ONC-001-0129,Treatment,49,1145,0,PR,PROGRESSIVE DISEASE
SYNTH-ONC-001,SYNTH-ONC-001-0130,Treatment,30,582,1,SD,COMPLETED
SYNTH-ONC-001,SYNTH-ONC-001-0131,Placebo,55,418,0,SD,PROGRESSIVE DISEASE
SYNTH-ONC-001,SYNTH-ONC-001-0132,Treatment,46,167,1,SD,COMPLETED
SYNTH-ONC-001,SYNTH-ONC-001-0133,Treatment,68,274,0,SD,PROGRESSIVE DISEASE
SYNTH-ONC-001,SYNTH-ONC-001-0134,Placebo,52,143,0,PD,PROGRESSIVE DISEASE
SYNTH-ONC-001,SYNTH-ONC-001-0135,Treatment,55,84,0,,PROGRESSIVE DISEASE
SYNTH-ONC-001,SYNTH-ONC-001-0136,Placebo,58,84,0,,PROGRESSIVE DISEASE
SYNTH-ONC-001,SYNTH-ONC-001-0137,Treatment,52,420,0,PR,PROGRESSIVE DISEASE
SYNTH-ONC-001,SYNTH-ONC-001-0138,Placebo,53,634,0,PR,PROGRESSIVE DISEASE
SYNTH-ONC-001,SYNTH-ONC-001-0139,Treatment,63,563,1,PR,WITHDRAWAL BY SUBJECT
SYNTH-ONC-001,SYNTH-ONC-001-0140,Placebo,44,84,0,,PROGRESSIVE DISEASE
SYNTH-ONC-001,SYNTH-ONC-001-0141,Placebo,47,158,0,SD,PROGRESSIVE DISEASE
SYNTH-ONC-001,SYNTH-ONC-001-0142,Placebo,45,84,0,,PROGRESSIVE DISEASE
SYNTH-ONC-001,SYNTH-ONC-001-0143,Placebo,69,160,0,SD,PROGRESSIVE DISEASE
SYNTH-ONC-001,SYNTH-ONC-001-0144,Treatment,47,84,0,,PROGRESSIVE DISEASE
SYNTH-ONC-001,SYNTH-ONC-001-0145,Treatment,53,116,0,PR,PROGRESSIVE DISEASE
SYNTH-ONC-001,SYNTH-ONC-001-0146,Treatment,48,641,0,SD,PROGRESSIVE DISEASE
SYNTH-ONC-001,SYNTH-ONC-001-0147,Treatment,51,490,0,SD,PROGRESSIVE DISEASE
SYNTH-ONC-001,SYNTH-ONC-001-0148,Placebo,47,287,0,SD,PROGRESSIVE DISEASE
SYNTH-ONC-001,SYNTH-ONC-001-0149,Treatment,59,515,0,SD,PROGRESSIVE DISEASE
SYNTH-ONC-001,SYNTH-ONC-001-0150,Treatment,44,84,0,,PROGRESSIVE DISEASE
SYNTH-ONC-001,SYNTH-ONC-001-0151,Placebo,41,900,0,SD,PROGRESSIVE DISEASE
SYNTH-ONC-001,SYNTH-ONC-001-0152,Placebo,49,203,0,SD,PROGRESSIVE DISEASE
SYNTH-ONC-001,SYNTH-ONC-001-0153,Treatment,47,84,0,,PROGRESSIVE DISEASE
SYNTH-ONC-001,SYNTH-ONC-001-0154,Treatment,41,597,0,PR,PROGRESSIVE DISEASE
SYNTH-ONC-001,SYNTH-ONC-001-0155,Treatment,51,84,0,,PROGRESSIVE DISEASE
SYNTH-ONC-001,SYNTH-ONC-001-0156,Treatment,38,519,1,PR,COMPLETED
SYNTH-ONC-001,SYNTH-ONC-001-0157,Placebo,72,145,0,SD,PROGRESSIVE DISEASE
SYNTH-ONC-001,SYNTH-ONC-001-0158,Placebo,40,357,0,SD,PROGRESSIVE DISEASE
SYNTH-ONC-001,SYNTH-ONC-001-0159,Treatment,48,84,0,,PROGRESSIVE DISEASE
SYNTH-ONC-001,SYNTH-ONC-001-0160,Treatment,50,595,1,PR,WITHDRAWAL BY SUBJECT
SYNTH-ONC-001,SYNTH-ONC-001-0161,Placebo,71,468,0,PD,PROGRESSIVE DISEASE
SYNTH-ONC-001,SYNTH-ONC-001-0162,Placebo,37,264,1,SD,WITHDRAWAL BY SUBJECT
SYNTH-ONC-001,SYNTH-ONC-001-0163,Placebo,56,84,0,,PROGRESSIVE DISEASE
SYNTH-ONC-001,SYNTH-ONC-001-0164,Placebo,65,267,0,SD,PROGRESSIVE DISEASE
SYNTH-ONC-001,SYNTH-ONC-001-0165,Treatment,51,85,1,SD,COMPLETED
SYNTH-ONC-001,SYNTH-ONC-001-0166,Treatment,43,223,0,SD,PROGRESSIVE DISEASE
SYNTH-ONC-001,SYNTH-ONC-001-0167,Placebo,53,84,0,,PROGRESSIVE DISEASE
SYNTH-ONC-001,SYNTH-ONC-001-0168,Treatment,70,211,0,SD,PROGRESSIVE DISEASE
SYNTH-ONC-001,SYNTH-ONC-001-0169,Placebo,48,310,0,SD,PROGRESSIVE DISEASE
SYNTH-ONC-001,SYNTH-ONC-001-0170,Treatment,69,505,1,PR,COMPLETED
SYNTH-ONC-001,SYNTH-ONC-001-0171,Treatment,57,217,0,SD,PROGRESSIVE DISEASE
SYNTH-ONC-001,SYNTH-ONC-001-0172,Treatment,67,327,0,SD,PROGRESSIVE DISEASE
SYNTH-ONC-001,SYNTH-ONC-001-0173,Treatment,57,89,0,SD,PROGRESSIVE DISEASE
SYNTH-ONC-001,SYNTH-ONC-001-0174,Treatment,50,138,0,SD,PROGRESSIVE DISEASE
SYNTH-ONC-001,SYNTH-ONC-001-0175,Placebo,71,810,0,PR,PROGRESSIVE DISEASE
SYNTH-ONC-001,SYNTH-ONC-001-0176,Placebo,57,222,0,SD,PROGRESSIVE DISEASE
SYNTH-ONC-001,SYNTH-ONC-001-0177,Placebo,56,428,1,PR,COMPLETED
SYNTH-ONC-001,SYNTH-ONC-001-0178,Treatment,63,495,0,SD,PROGRESSIVE DISEASE
SYNTH-ONC-001,SYNTH-ONC-001-0179,Placebo,64,445,1,PR,COMPLETED
SYNTH-ONC-001,SYNTH-ONC-001-0180,Placebo,63,84,0,,PROGRESSIVE DISEASE
SYNTH-ONC-001,SYNTH-ONC-001-0181,Treatment,41,84,0,,PROGRESSIVE DISEASE
SYNTH-ONC-001,SYNTH-ONC-001-0182,Treatment,48,148,0,SD,PROGRESSIVE DISEASE
SYNTH-ONC-001,SYNTH-ONC-001-0183,Placebo,48,296,1,PR,COMPLETED
SYNTH-ONC-001,SYNTH-ONC-001-0184,Placebo,47,417,0,PR,PROGRESSIVE DISEASE
SYNTH-ONC-001,SYNTH-ONC-001-0185,Placebo,46,86,0,SD,PROGRESSIVE DISEASE
SYNTH-ONC-001,SYNTH-ONC-001-0186,Placebo,48,271,1,SD,COMPLETED
SYNTH-ONC-001,SYNTH-ONC-001-0187,Treatment,58,602,0,PR,PROGRESSIVE DISEASE
SYNTH-ONC-001,SYNTH-ONC-001-0188,Placebo,59,590,0,PR,PROGRESSIVE DISEASE
SYNTH-ONC-001,SYNTH-ONC-001-0189,Treatment,54,183,1,PD,COMPLETED
SYNTH-ONC-001,SYNTH-ONC-001-0190,Treatment,50,332,0,SD,PROGRESSIVE DISEASE
SYNTH-ONC-001,SYNTH-ONC-001-0191,Placebo,67,293,1,SD,WITHDRAWAL BY SUBJECT
SYNTH-ONC-001,SYNTH-ONC-001-0192,Placebo,54,298,0,SD,PROGRESSIVE DISEASE
SYNTH-ONC-001,SYNTH-ONC-001-0193,Treatment,64,378,0,SD,PROGRESSIVE DISEASE
SYNTH-ONC-001,SYNTH-ONC-001-0194,Placebo,49,298,0,SD,PROGRESSIVE DISEASE
SYNTH-ONC-001,SYNTH-ONC-001-0195,Treatment,59,84,0,,PROGRESSIVE DISEASE
SYNTH-ONC-001,SYNTH-ONC-001-0196,Placebo,68,175,0,SD,PROGRESSIVE DISEASE
SYNTH-ONC-001,SYNTH-ONC-001-0197,Treatment,28,334,0,SD,PROGRESSIVE DISEASE
SYNTH-ONC-001,SYNTH-ONC-001-0198,Treatment,48,477,0,SD,PROGRESSIVE DISEASE
SYNTH-ONC-001,SYNTH-ONC-001-0199,Placebo,60,84,0,,PROGRESSIVE DISEASE
SYNTH-ONC-001,SYNTH-ONC-001-0200,Placebo,67,206,0,SD,PROGRESSIVE DISEASE
