STUDYID,USUBJID,PARAMCD,PARAM,AVAL,CNSR,TRT01A
SYNTH-ONC-001,SYNTH-ONC-001-0001,PFS,Progression-Free Survival,429.0,0,Treatment
SYNTH-ONC-001,SYNTH-ONC-001-0002,PFS,Progression-Free Survival,84.0,0,Treatment
SYNTH-ONC-001,SYNTH-ONC-001-0003,PFS,Progression-Free Survival,491.0,0,Treatment
SYNTH-ONC-001,SYNTH-ONC-001-0004,PFS,Progression-Free Survival,92.0,0,Placebo
SYNTH-ONC-001,SYNTH-ONC-001-0005,PFS,Progression-Free Survival,136.0,0,Placebo
SYNTH-ONC-001,SYNTH-ONC-001-0006,PFS,Progression-Free Survival,102.0,0,Placebo
SYNTH-ONC-001,SYNTH-ONC-001-0007,PFS,Progression-Free Survival,319.0,0,Treatment
SYNTH-ONC-001,SYNTH-ONC-001-0008,PFS,Progression-Free Survival,178.0,0,Placebo
SYNTH-ONC-001,SYNTH-ONC-001-0009,PFS,Progression-Free Survival,452.0,1,Placebo
SYNTH-ONC-001,SYNTH-ONC-001-0010,PFS,Progression-Free Survival,192.0,0,Treatment
SYNTH-ONC-001,SYNTH-ONC-001-0011,PFS,Progression-Free Survival,850.0,0,Treatment
SYNTH-ONC-001,SYNTH-ONC-001-0012,PFS,Progression-Free Survival,84.0,0,Placebo
SYNTH-ONC-001,SYNTH-ONC-001-0013,PFS,Progression-Free Survival,84.0,0,Placebo
SYNTH-ONC-001,SYNTH-ONC-001-0014,PFS,Progression-Free Survival,84.0,0,Treatment
SYNTH-ONC-001,SYNTH-ONC-001-0015,PFS,Progression-Free Survival,91.0,0,Placebo
SYNTH-ONC-001,SYNTH-ONC-001-0016,PFS,Progression-Free Survival,84.0,0,Placebo
SYNTH-ONC-001,SYNTH-ONC-001-0017,PFS,Progression-Free Survival,308.0,1,Treatment
SYNTH-ONC-001,SYNTH-ONC-001-0018,PFS,Progression-Free Survival,84.0,0,Placebo
SYNTH-ONC-001,SYNTH-ONC-001-0019,PFS,Progression-Free Survival,141.0,0,Treatment
SYNTH-ONC-001,SYNTH-ONC-001-0020,PFS,Progression-Free Survival,327.0,0,Treatment
SYNTH-ONC-001,SYNTH-ONC-001-0021,PFS,Progression-Free Survival,84.0,0,Placebo
SYNTH-ONC-001,SYNTH-ONC-001-0022,PFS,Progression-Free Survival,84.0,0,Treatment
SYNTH-ONC-001,SYNTH-ONC-001-0023,PFS,Progression-Free Survival,499.0,0,Placebo
SYNTH-ONC-001,SYNTH-ONC-001-0024,PFS,Progression-Free Survival,877.0,0,Treatment
SYNTH-ONC-001,SYNTH-ONC-001-0025,PFS,Progression-Free Survival,853.0,0,Treatment
SYNTH-ONC-001,SYNTH-ONC-001-0026,PFS,Progression-Free Survival,84.0,0,Treatment
SYNTH-ONC-001,SYNTH-ONC-001-0027,PFS,Progression-Free Survival,530.0,0,Treatment
SYNTH-ONC-001,SYNTH-ONC-001-0028,PFS,Progression-Free Survival,84.0,0,Treatment
SYNTH-ONC-001,SYNTH-ONC-001-0029,PFS,Progression-Free Survival,375.0,1,Placebo
SYNTH-ONC-001,SYNTH-ONC-001-0030,PFS,Progression-Free Survival,384.0,0,Placebo
SYNTH-ONC-001,SYNTH-ONC-001-0031,PFS,Progression-Free Survival,124.0,0,Treatment
SYNTH-ONC-001,SYNTH-ONC-001-0032,PFS,Progression-Free Survival,194.0,0,Treatment
SYNTH-ONC-001,SYNTH-ONC-001-0033,PFS,Progression-Free Survival,221.0,0,Treatment
SYNTH-ONC-001,SYNTH-ONC-001-0034,PFS,Progression-Free Survival,633.0,0,Treatment
SYNTH-ONC-001,SYNTH-ONC-001-0035,PFS,Progression-Free Survival,244.0,0,Placebo
SYNTH-ONC-001,SYNTH-ONC-001-0036,PFS,Progression-Free Survival,127.0,0,Placebo
SYNTH-ONC-001,SYNTH-ONC-001-0037,PFS,Progression-Free Survival,84.0,0,Placebo
SYNTH-ONC-001,SYNTH-ONC-001-0038,PFS,Progression-Free Survival,272.0,0,Placebo
SYNTH-ONC-001,SYNTH-ONC-001-0039,PFS,Progression-Free Survival,145.0,0,Placebo
SYNTH-ONC-001,SYNTH-ONC-001-0040,PFS,Progression-Free Survival,503.0,1,Treatment
SYNTH-ONC-001,SYNTH-ONC-001-0041,PFS,Progression-Free Survival,246.0,1,Treatment
SYNTH-ONC-001,SYNTH-ONC-001-0042,PFS,Progression-Free Survival,84.0,0,Placebo
SYNTH-ONC-001,SYNTH-ONC-001-0043,PFS,Progression-Free Survival,316.0,0,Treatment
SYNTH-ONC-001,SYNTH-ONC-001-0044,PFS,Progression-Free Survival,764.0,0,Treatment
SYNTH-ONC-001,SYNTH-ONC-001-0045,PFS,Progression-Free Survival,319.0,0,Placebo
SYNTH-ONC-001,SYNTH-ONC-001-0046,PFS,Progression-Free Survival,320.0,0,Placebo
SYNTH-ONC-001,SYNTH-ONC-001-0047,PFS,Progression-Free Survival,542.0,1,Treatment
SYNTH-ONC-001,SYNTH-ONC-001-0048,PFS,Progression-Free Survival,137.0,0,Treatment
SYNTH-ONC-001,SYNTH-ONC-001-0049,PFS,Progression-Free Survival,259.0,0,Placebo
SYNTH-ONC-001,SYNTH-ONC-001-0050,PFS,Progression-Free Survival,731.0,0,Treatment
SYNTH-ONC-001,SYNTH-ONC-001-0051,PFS,Progression-Free Survival,470.0,0,Placebo
SYNTH-ONC-001,SYNTH-ONC-001-0052,PFS,Progression-Free Survival,339.0,0,Placebo
SYNTH-ONC-001,SYNTH-ONC-001-0053,PFS,Progression-Free Survival,621.0,0,Treatment
SYNTH-ONC-001,SYNTH-ONC-001-0054,PFS,Progression-Free Survival,87.0,0,Placebo
SYNTH-ONC-001,SYNTH-ONC-001-0055,PFS,Progression-Free Survival,715.0,0,Placebo
SYNTH-ONC-001,SYNTH-ONC-001-0056,PFS,Progression-Free Survival,291.0,0,Treatment
SYNTH-ONC-001,SYNTH-ONC-001-0057,PFS,Progression-Free Survival,84.0,0,Placebo
SYNTH-ONC-001,SYNTH-ONC-001-0058,PFS,Progression-Free Survival,473.0,0,Treatment
SYNTH-ONC-001,SYNTH-ONC-001-0059,PFS,Progression-Free Survival,84.0,0,Placebo
SYNTH-ONC-001,SYNTH-ONC-001-0060,PFS,Progression-Free Survival,84.0,0,Treatment
SYNTH-ONC-001,SYNTH-ONC-001-0061,PFS,Progression-Free Survival,224.0,0,Placebo
SYNTH-ONC-001,SYNTH-ONC-001-0062,PFS,Progression-Free Survival,590.0,0,Treatment
SYNTH-ONC-001,SYNTH-ONC-001-0063,PFS,Progression-Free Survival,181.0,0,Treatment
SYNTH-ONC-001,SYNTH-ONC-001-0064,PFS,Progression-Free Survival,84.0,0,Treatment
SYNTH-ONC-001,SYNTH-ONC-001-0065,PFS,Progression-Free Survival,108.0,0,Treatment
SYNTH-ONC-001,SYNTH-ONC-001-0066,PFS,Progression-Free Survival,195.0,0,Placebo
SYNTH-ONC-001,SYNTH-ONC-001-0067,PFS,Progression-Free Survival,637.0,0,Treatment
SYNTH-ONC-001,SYNTH-ONC-001-0068,PFS,Progression-Free Survival,106.0,0,Placebo
SYNTH-ONC-001,SYNTH-ONC-001-0069,PFS,Progression-Free Survival,139.0,1,Treatment
SYNTH-ONC-001,SYNTH-ONC-001-0070,PFS,Progression-Free Survival,287.0,0,Placebo
SYNTH-ONC-001,SYNTH-ONC-001-0071,PFS,Progression-Free Survival,201.0,0,Treatment
SYNTH-ONC-001,SYNTH-ONC-001-0072,PFS,Progression-Free Survival,183.0,0,Placebo
SYNTH-ONC-001,SYNTH-ONC-001-0073,PFS,Progression-Free Survival,600.0,0,Placebo
SYNTH-ONC-001,SYNTH-ONC-001-0074,PFS,Progression-Free Survival,110.0,0,Treatment
SYNTH-ONC-001,SYNTH-ONC-001-0075,PFS,Progression-Free Survival,359.0,0,Placebo
SYNTH-ONC-001,SYNTH-ONC-001-0076,PFS,Progression-Free Survival,251.0,1,Placebo
SYNTH-ONC-001,SYNTH-ONC-001-0077,PFS,Progression-Free Survival,225.0,0,Treatment
SYNTH-ONC-001,SYNTH-ONC-001-0078,PFS,Progression-Free Survival,103.0,0,Placebo
SYNTH-ONC-001,SYNTH-ONC-001-0079,PFS,Progression-Free Survival,120.0,0,Placebo
SYNTH-ONC-001,SYNTH-ONC-001-0080,PFS,Progression-Free Survival,84.0,0,Placebo
SYNTH-ONC-001,SYNTH-ONC-001-0081,PFS,Progression-Free Survival,84.0,0,Treatment
SYNTH-ONC-001,SYNTH-ONC-001-0082,PFS,Progression-Free Survival,1145.0,0,Treatment
SYNTH-ONC-001,SYNTH-ONC-001-0083,PFS,Progression-Free Survival,257.0,0,Treatment
SYNTH-ONC-001,SYNTH-ONC-001-0084,PFS,Progression-Free Survival,349.0,1,Placebo
SYNTH-ONC-001,SYNTH-ONC-001-0085,PFS,Progression-Free Survival,277.0,0,Placebo
SYNTH-ONC-001,SYNTH-ONC-001-0086,PFS,Progression-Free Survival,1379.0,0,Treatment
SYNTH-ONC-001,SYNTH-ONC-001-0087,PFS,Progression-Free Survival,230.0,0,Placebo
SYNTH-ONC-001,SYNTH-ONC-001-0088,PFS,Progression-Free Survival,84.0,0,Treatment
SYNTH-ONC-001,SYNTH-ONC-001-0089,PFS,Progression-Free Survival,410.0,1,Placebo
SYNTH-ONC-001,SYNTH-ONC-001-0090,PFS,Progression-Free Survival,131.0,0,Treatment
SYNTH-ONC-001,SYNTH-ONC-001-0091,PFS,Progression-Free Survival,84.0,0,Treatment
SYNTH-ONC-001,SYNTH-ONC-001-0092,PFS,Progression-Free Survival,309.0,0,Placebo
SYNTH-ONC-001,SYNTH-ONC-001-0093,PFS,Progression-Free Survival,118.0,0,Placebo
SYNTH-ONC-001,SYNTH-ONC-001-0094,PFS,Progression-Free Survival,367.0,0,Treatment
SYNTH-ONC-001,SYNTH-ONC-001-0095,PFS,Progression-Free Survival,229.0,0,Treatment
SYNTH-ONC-001,SYNTH-ONC-001-0096,PFS,Progression-Free Survival,113.0,0,Placebo
SYNTH-ONC-001,SYNTH-ONC-001-0097,PFS,Progression-Free Survival,317.0,0,Placebo
SYNTH-ONC-001,SYNTH-ONC-001-0098,PFS,Progression-Free Survival,468.0,0,Treatment
SYNTH-ONC-001,SYNTH-ONC-001-0099,PFS,Progression-Free Survival,732.0,0,Treatment
SYNTH-ONC-001,SYNTH-ONC-001-0100,PFS,Progression-Free Survival,904.0,0,Placebo
SYNTH-ONC-001,SYNTH-ONC-001-0101,PFS,Progression-Free Survival,169.0,0,Treatment
SYNTH-ONC-001,SYNTH-ONC-001-0102,PFS,Progression-Free Survival,84.0,0,Treatment
SYNTH-ONC-001,SYNTH-ONC-001-0103,PFS,Progression-Free Survival,84.0,0,Placebo
SYNTH-ONC-001,SYNTH-ONC-001-0104,PFS,Progression-Free Survival,84.0,0,Placebo
SYNTH-ONC-001,SYNTH-ONC-001-0105,PFS,Progression-Free Survival,84.0,0,Placebo
SYNTH-ONC-001,SYNTH-ONC-001-0106,PFS,Progression-Free Survival,84.0,0,Placebo
SYNTH-ONC-001,SYNTH-ONC-001-0107,PFS,Progression-Free Survival,670.0,0,Treatment
SYNTH-ONC-001,SYNTH-ONC-001-0108,PFS,Progression-Free Survival,113.0,0,Treatment
SYNTH-ONC-001,SYNTH-ONC-001-0109,PFS,Progression-Free Survival,84.0,0,Placebo
SYNTH-ONC-001,SYNTH-ONC-001-0110,PFS,Progression-Free Survival,610.0,0,Placebo
SYNTH-ONC-001,SYNTH-ONC-001-0111,PFS,Progression-Free Survival,173.0,0,Placebo
SYNTH-ONC-001,SYNTH-ONC-001-0112,PFS,Progression-Free Survival,514.0,1,Treatment
SYNTH-ONC-001,SYNTH-ONC-001-0113,PFS,Progression-Free Survival,87.0,1,Placebo
SYNTH-ONC-001,SYNTH-ONC-001-0114,PFS,Progression-Free Survival,84.0,0,Placebo
SYNTH-ONC-001,SYNTH-ONC-001-0115,PFS,Progression-Free Survival,91.0,0,Treatment
SYNTH-ONC-001,SYNTH-ONC-001-0116,PFS,Progression-Free Survival,84.0,0,Placebo
SYNTH-ONC-001,SYNTH-ONC-001-0117,PFS,Progression-Free Survival,1103.0,0,Treatment
SYNTH-ONC-001,SYNTH-ONC-001-0118,PFS,Progression-Free Survival,347.0,0,Treatment
SYNTH-ONC-001,SYNTH-ONC-001-0119,PFS,Progression-Free Survival,177.0,0,Placebo
SYNTH-ONC-001,SYNTH-ONC-001-0120,PFS,Progression-Free Survival,253.0,0,Treatment
SYNTH-ONC-001,SYNTH-ONC-001-0121,PFS,Progression-Free Survival,586.0,1,Treatment
SYNTH-ONC-001,SYNTH-ONC-001-0122,PFS,Progression-Free Survival,190.0,0,Placebo
SYNTH-ONC-001,SYNTH-ONC-001-0123,PFS,Progression-Free Survival,439.0,0,Placebo
SYNTH-ONC-001,SYNTH-ONC-001-0124,PFS,Progression-Free Survival,96.0,0,Placebo
SYNTH-ONC-001,SYNTH-ONC-001-0125,PFS,Progression-Free Survival,84.0,0,Treatment
SYNTH-ONC-001,SYNTH-ONC-001-0126,PFS,Progression-Free Survival,139.0,0,Treatment
SYNTH-ONC-001,SYNTH-ONC-001-0127,PFS,Progression-Free Survival,84.0,0,Placebo
SYNTH-ONC-001,SYNTH-ONC-001-0128,PFS,Progression-Free Survival,232.0,0,Placebo
SYNTH-ONC-001,SYNTH-ONC-001-0129,PFS,Progression-Free Survival,1145.0,0,Treatment
SYNTH-ONC-001,SYNTH-ONC-001-0130,PFS,Progression-Free Survival,582.0,1,Treatment
SYNTH-ONC-001,SYNTH-ONC-001-0131,PFS,Progression-Free Survival,418.0,0,Placebo
SYNTH-ONC-001,SYNTH-ONC-001-0132,PFS,Progression-Free Survival,167.0,1,Treatment
SYNTH-ONC-001,SYNTH-ONC-001-0133,PFS,Progression-Free Survival,274.0,0,Treatment
SYNTH-ONC-001,SYNTH-ONC-001-0134,PFS,Progression-Free Survival,143.0,0,Placebo
SYNTH-ONC-001,SYNTH-ONC-001-0135,PFS,Progression-Free Survival,84.0,0,Treatment
SYNTH-ONC-001,SYNTH-ONC-001-0136,PFS,Progression-Free Survival,84.0,0,Placebo
SYNTH-ONC-001,SYNTH-ONC-001-0137,PFS,Progression-Free Survival,420.0,0,Treatment
SYNTH-ONC-001,SYNTH-ONC-001-0138,PFS,Progression-Free Survival,634.0,0,Placebo
SYNTH-ONC-001,SYNTH-ONC-001-0139,PFS,Progression-Free Survival,563.0,1,Treatment
SYNTH-ONC-001,SYNTH-ONC-001-0140,PFS,Progression-Free Survival,84.0,0,Placebo
SYNTH-ONC-001,SYNTH-ONC-001-0141,PFS,Progression-Free Survival,158.0,0,Placebo
SYNTH-ONC-001,SYNTH-ONC-001-0142,PFS,Progression-Free Survival,84.0,0,Placebo
SYNTH-ONC-001,SYNTH-ONC-001-0143,PFS,Progression-Free Survival,160.0,0,Placebo
SYNTH-ONC-001,SYNTH-ONC-001-0144,PFS,Progression-Free Survival,84.0,0,Treatment
SYNTH-ONC-001,SYNTH-ONC-001-0145,PFS,Progression-Free Survival,116.0,0,Treatment
SYNTH-ONC-001,SYNTH-ONC-001-0146,PFS,Progression-Free Survival,641.0,0,Treatment
SYNTH-ONC-001,SYNTH-ONC-001-0147,PFS,Progression-Free Survival,490.0,0,Treatment
SYNTH-ONC-001,SYNTH-ONC-001-0148,PFS,Progression-Free Survival,287.0,0,Placebo
SYNTH-ONC-001,SYNTH-ONC-001-0149,PFS,Progression-Free Survival,515.0,0,Treatment
SYNTH-ONC-001,SYNTH-ONC-001-0150,PFS,Progression-Free Survival,84.0,0,Treatment
SYNTH-ONC-001,SYNTH-ONC-001-0151,PFS,Progression-Free Survival,900.0,0,Placebo
SYNTH-ONC-001,SYNTH-ONC-001-0152,PFS,Progression-Free Survival,203.0,0,Placebo
SYNTH-ONC-001,SYNTH-ONC-001-0153,PFS,Progression-Free Survival,84.0,0,Treatment
SYNTH-ONC-001,SYNTH-ONC-001-0154,PFS,Progression-Free Survival,597.0,0,Treatment
SYNTH-ONC-001,SYNTH-ONC-001-0155,PFS,Progression-Free Survival,84.0,0,Treatment
SYNTH-ONC-001,SYNTH-ONC-001-0156,PFS,Progression-Free Survival,519.0,1,Treatment
SYNTH-ONC-001,SYNTH-ONC-001-0157,PFS,Progression-Free Survival,145.0,0,Placebo
SYNTH-ONC-001,SYNTH-ONC-001-0158,PFS,Progression-Free Survival,357.0,0,Placebo
SYNTH-ONC-001,SYNTH-ONC-001-0159,PFS,Progression-Free Survival,84.0,0,Treatment
SYNTH-ONC-001,SYNTH-ONC-001-0160,PFS,Progression-Free Survival,595.0,1,Treatment
SYNTH-ONC-001,SYNTH-ONC-001-0161,PFS,Progression-Free Survival,468.0,0,Placebo
SYNTH-ONC-001,SYNTH-ONC-001-0162,PFS,Progression-Free Survival,264.0,1,Placebo
SYNTH-ONC-001,SYNTH-ONC-001-0163,PFS,Progression-Free Survival,84.0,0,Placebo
SYNTH-ONC-001,SYNTH-ONC-001-0164,PFS,Progression-Free Survival,267.0,0,Placebo
SYNTH-ONC-001,SYNTH-ONC-001-0165,PFS,Progression-Free Survival,85.0,1,Treatment
SYNTH-ONC-001,SYNTH-ONC-001-0166,PFS,Progression-Free Survival,223.0,0,Treatment
SYNTH-ONC-001,SYNTH-ONC-001-0167,PFS,Progression-Free Survival,84.0,0,Placebo
SYNTH-ONC-001,SYNTH-ONC-001-0168,PFS,Progression-Free Survival,211.0,0,Treatment
SYNTH-ONC-001,SYNTH-ONC-001-0169,PFS,Progression-Free Survival,310.0,0,Placebo
SYNTH-ONC-001,SYNTH-ONC-001-0170,PFS,Progression-Free Survival,505.0,1,Treatment
SYNTH-ONC-001,SYNTH-ONC-001-0171,PFS,Progression-Free Survival,217.0,0,Treatment
SYNTH-ONC-001,SYNTH-ONC-001-0172,PFS,Progression-Free Survival,327.0,0,Treatment
SYNTH-ONC-001,SYNTH-ONC-001-0173,PFS,Progression-Free Survival,89.0,0,Treatment
SYNTH-ONC-001,SYNTH-ONC-001-0174,PFS,Progression-Free Survival,138.0,0,Treatment
SYNTH-ONC-001,SYNTH-ONC-001-0175,PFS,Progression-Free Survival,810.0,0,Placebo
SYNTH-ONC-001,SYNTH-ONC-001-0176,PFS,Progression-Free Survival,222.0,0,Placebo
SYNTH-ONC-001,SYNTH-ONC-001-0177,PFS,Progression-Free Survival,428.0,1,Placebo
SYNTH-ONC-001,SYNTH-ONC-001-0178,PFS,Progression-Free Survival,495.0,0,Treatment
SYNTH-ONC-001,SYNTH-ONC-001-0179,PFS,Progression-Free Survival,445.0,1,Placebo
SYNTH-ONC-001,SYNTH-ONC-001-0180,PFS,Progression-Free Survival,84.0,0,Placebo
SYNTH-ONC-001,SYNTH-ONC-001-0181,PFS,Progression-Free Survival,84.0,0,Treatment
SYNTH-ONC-001,SYNTH-ONC-001-0182,PFS,Progression-Free Survival,148.0,0,Treatment
SYNTH-ONC-001,SYNTH-ONC-001-0183,PFS,Progression-Free Survival,296.0,1,Placebo
SYNTH-ONC-001,SYNTH-ONC-001-0184,PFS,Progression-Free Survival,417.0,0,Placebo
SYNTH-ONC-001,SYNTH-ONC-001-0185,PFS,Progression-Free Survival,86.0,0,Placebo
SYNTH-ONC-001,SYNTH-ONC-001-0186,PFS,Progression-Free Survival,271.0,1,Placebo
SYNTH-ONC-001,SYNTH-ONC-001-0187,PFS,Progression-Free Survival,602.0,0,Treatment
SYNTH-ONC-001,SYNTH-ONC-001-0188,PFS,Progression-Free Survival,590.0,0,Placebo
SYNTH-ONC-001,SYNTH-ONC-001-0189,PFS,Progression-Free Survival,183.0,1,Treatment
SYNTH-ONC-001,SYNTH-ONC-001-0190,PFS,Progression-Free Survival,332.0,0,Treatment
SYNTH-ONC-001,SYNTH-ONC-001-0191,PFS,Progression-Free Survival,293.0,1,Placebo
SYNTH-ONC-001,SYNTH-ONC-001-0192,PFS,Progression-Free Survival,298.0,0,Placebo
SYNTH-ONC-001,SYNTH-ONC-001-0193,PFS,Progression-Free Survival,378.0,0,Treatment
SYNTH-ONC-001,SYNTH-ONC-001-0194,PFS,Progression-Free Survival,298.0,0,Placebo
SYNTH-ONC-001,SYNTH-ONC-001-0195,PFS,Progression-Free Survival,84.0,0,Treatment
SYNTH-ONC-001,SYNTH-ONC-001-0196,PFS,Progression-Free Survival,175.0,0,Placebo
SYNTH-ONC-001,SYNTH-ONC-001-0197,PFS,Progression-Free Survival,334.0,0,Treatment
SYNTH-ONC-001,SYNTH-ONC-001-0198,PFS,Progression-Free Survival,477.0,0,Treatment
SYNTH-ONC-001,SYNTH-ONC-001-0199,PFS,Progression-Free Survival,84.0,0,Placebo
SYNTH-ONC-001,SYNTH-ONC-001-0200,PFS,Progression-Free Survival,206.0,0,Placebo
