STUDYID,DOMAIN,USUBJID,SUBJID,DMSEQ,AGE,SEX,RFSTDTC,RFXSTDTC,RFXENDTC,ARMCD,ARM,ACTARMCD,ACTARM,DTHFL,DTHDTC
SYNTH-ONC-001,DM,SYNTH-ONC-001-0001,0001,1,67,F,2022-02-07,2022-02-07,2023-06-16,TRT,Fulvestrant + Everolimus,TRT,Fulvestrant + Everolimus,N,
SYNTH-ONC-001,DM,SYNTH-ONC-001-0002,0002,2,53,F,2022-09-30,2022-09-30,2024-03-30,TRT,Fulvestrant + Everolimus,TRT,Fulvestrant + Everolimus,N,
SYNTH-ONC-001,DM,SYNTH-ONC-001-0003,0003,3,51,F,2021-05-10,2021-05-10,2022-06-07,TRT,Fulvestrant + Everolimus,TRT,Fulvestrant + Everolimus,Y,2022-10-06
SYNTH-ONC-001,DM,SYNTH-ONC-001-0004,0004,4,42,F,2021-02-22,2021-02-22,2022-10-04,PLC,Fulvestrant + Placebo,PLC,Fulvestrant + Placebo,N,
SYNTH-ONC-001,DM,SYNTH-ONC-001-0005,0005,5,47,F,2022-11-15,2022-11-15,2023-12-08,PLC,Fulvestrant + Placebo,PLC,Fulvestrant + Placebo,N,
SYNTH-ONC-001,DM,SYNTH-ONC-001-0006,0006,6,59,F,2022-12-31,2022-12-31,2024-02-07,PLC,Fulvestrant + Placebo,PLC,Fulvestrant + Placebo,Y,2023-06-13
SYNTH-ONC-001,DM,SYNTH-ONC-001-0007,0007,7,41,F,2022-11-03,2022-11-03,2023-10-28,TRT,Fulvestrant + Everolimus,TRT,Fulvestrant + Everolimus,N,
SYNTH-ONC-001,DM,SYNTH-ONC-001-0008,0008,8,35,F,2022-12-11,2022-12-11,2023-03-30,PLC,Fulvestrant + Placebo,PLC,Fulvestrant + Placebo,Y,2024-08-29
SYNTH-ONC-001,DM,SYNTH-ONC-001-0009,0009,9,46,F,2022-02-20,2022-02-20,2023-05-18,PLC,Fulvestrant + Placebo,PLC,Fulvestrant + Placebo,N,
SYNTH-ONC-001,DM,SYNTH-ONC-001-0010,0010,10,63,F,2021-09-04,2021-09-04,2022-08-25,TRT,Fulvestrant + Everolimus,TRT,Fulvestrant + Everolimus,Y,2023-01-13
SYNTH-ONC-001,DM,SYNTH-ONC-001-0011,0011,11,72,F,2022-03-15,2022-03-15,2023-01-12,TRT,Fulvestrant + Everolimus,TRT,Fulvestrant + Everolimus,Y,2024-11-23
SYNTH-ONC-001,DM,SYNTH-ONC-001-0012,0012,12,48,F,2021-07-22,2021-07-22,2023-01-24,PLC,Fulvestrant + Placebo,PLC,Fulvestrant + Placebo,Y,2021-10-15
SYNTH-ONC-001,DM,SYNTH-ONC-001-0013,0013,13,39,F,2021-07-03,2021-07-03,2022-02-08,PLC,Fulvestrant + Placebo,PLC,Fulvestrant + Placebo,Y,2022-02-02
SYNTH-ONC-001,DM,SYNTH-ONC-001-0014,0014,14,51,F,2021-05-03,2021-05-03,2022-04-10,TRT,Fulvestrant + Everolimus,TRT,Fulvestrant + Everolimus,Y,2022-05-06
SYNTH-ONC-001,DM,SYNTH-ONC-001-0015,0015,15,56,F,2022-02-05,2022-02-05,2023-04-17,PLC,Fulvestrant + Placebo,PLC,Fulvestrant + Placebo,Y,2022-06-10
SYNTH-ONC-001,DM,SYNTH-ONC-001-0016,0016,16,60,F,2021-10-21,2021-10-21,2023-02-23,PLC,Fulvestrant + Placebo,PLC,Fulvestrant + Placebo,Y,2023-03-14
SYNTH-ONC-001,DM,SYNTH-ONC-001-0017,0017,17,76,F,2021-10-07,2021-10-07,2022-08-11,TRT,Fulvestrant + Everolimus,TRT,Fulvestrant + Everolimus,N,
SYNTH-ONC-001,DM,SYNTH-ONC-001-0018,0018,18,57,F,2022-09-02,2022-09-02,2024-01-29,PLC,Fulvestrant + Placebo,PLC,Fulvestrant + Placebo,N,
SYNTH-ONC-001,DM,SYNTH-ONC-001-0019,0019,19,71,F,2021-07-17,2021-07-17,2022-11-04,TRT,Fulvestrant + Everolimus,TRT,Fulvestrant + Everolimus,Y,2022-01-27
SYNTH-ONC-001,DM,SYNTH-ONC-001-0020,0020,20,50,F,2022-05-26,2022-05-26,2022-08-29,TRT,Fulvestrant + Everolimus,TRT,Fulvestrant + Everolimus,Y,2023-12-10
SYNTH-ONC-001,DM,SYNTH-ONC-001-0021,0021,21,55,F,2021-05-24,2021-05-24,2021-08-16,PLC,Fulvestrant + Placebo,PLC,Fulvestrant + Placebo,N,
SYNTH-ONC-001,DM,SYNTH-ONC-001-0022,0022,22,49,F,2022-09-01,2022-09-01,2023-10-01,TRT,Fulvestrant + Everolimus,TRT,Fulvestrant + Everolimus,Y,2023-09-18
SYNTH-ONC-001,DM,SYNTH-ONC-001-0023,0023,23,48,F,2021-07-20,2021-07-20,2022-03-24,PLC,Fulvestrant + Placebo,PLC,Fulvestrant + Placebo,N,
SYNTH-ONC-001,DM,SYNTH-ONC-001-0024,0024,24,52,F,2021-05-04,2021-05-04,2021-10-23,TRT,Fulvestrant + Everolimus,TRT,Fulvestrant + Everolimus,Y,2024-01-05
SYNTH-ONC-001,DM,SYNTH-ONC-001-0025,0025,25,52,F,2021-07-06,2021-07-06,2022-07-14,TRT,Fulvestrant + Everolimus,TRT,Fulvestrant + Everolimus,Y,2023-12-24
SYNTH-ONC-001,DM,SYNTH-ONC-001-0026,0026,26,48,F,2021-11-22,2021-11-22,2022-07-24,TRT,Fulvestrant + Everolimus,TRT,Fulvestrant + Everolimus,N,
SYNTH-ONC-001,DM,SYNTH-ONC-001-0027,0027,27,49,F,2022-04-09,2022-04-09,2023-03-25,TRT,Fulvestrant + Everolimus,TRT,Fulvestrant + Everolimus,Y,2024-02-05
SYNTH-ONC-001,DM,SYNTH-ONC-001-0028,0028,28,65,F,2021-12-15,2021-12-15,2022-10-19,TRT,Fulvestrant + Everolimus,TRT,Fulvestrant + Everolimus,Y,2022-05-15
SYNTH-ONC-001,DM,SYNTH-ONC-001-0029,0029,29,76,F,2022-10-22,2022-10-22,2023-11-01,PLC,Fulvestrant + Placebo,PLC,Fulvestrant + Placebo,N,
SYNTH-ONC-001,DM,SYNTH-ONC-001-0030,0030,30,50,F,2022-02-07,2022-02-07,2022-11-10,PLC,Fulvestrant + Placebo,PLC,Fulvestrant + Placebo,Y,2023-04-08
SYNTH-ONC-001,DM,SYNTH-ONC-001-0031,0031,31,51,F,2021-12-12,2021-12-12,2023-02-21,TRT,Fulvestrant + Everolimus,TRT,Fulvestrant + Everolimus,Y,2022-06-07
SYNTH-ONC-001,DM,SYNTH-ONC-001-0032,0032,32,60,F,2022-05-26,2022-05-26,2022-10-30,TRT,Fulvestrant + Everolimus,TRT,Fulvestrant + Everolimus,Y,2022-12-16
SYNTH-ONC-001,DM,SYNTH-ONC-001-0033,0033,33,80,F,2021-05-27,2021-05-27,2022-08-06,TRT,Fulvestrant + Everolimus,TRT,Fulvestrant + Everolimus,Y,2022-03-01
SYNTH-ONC-001,DM,SYNTH-ONC-001-0034,0034,34,55,F,2021-05-28,2021-05-28,2022-03-06,TRT,Fulvestrant + Everolimus,TRT,Fulvestrant + Everolimus,Y,2023-09-10
SYNTH-ONC-001,DM,SYNTH-ONC-001-0035,0035,35,64,F,2022-12-12,2022-12-12,2024-05-27,PLC,Fulvestrant + Placebo,PLC,Fulvestrant + Placebo,Y,2023-11-27
SYNTH-ONC-001,DM,SYNTH-ONC-001-0036,0036,36,70,F,2022-05-04,2022-05-04,2023-04-07,PLC,Fulvestrant + Placebo,PLC,Fulvestrant + Placebo,Y,2022-09-10
SYNTH-ONC-001,DM,SYNTH-ONC-001-0037,0037,37,58,F,2022-10-02,2022-10-02,2024-05-09,PLC,Fulvestrant + Placebo,PLC,Fulvestrant + Placebo,Y,2023-10-28
SYNTH-ONC-001,DM,SYNTH-ONC-001-0038,0038,38,64,F,2022-07-05,2022-07-05,2023-07-25,PLC,Fulvestrant + Placebo,PLC,Fulvestrant + Placebo,Y,2023-06-16
SYNTH-ONC-001,DM,SYNTH-ONC-001-0039,0039,39,61,F,2021-12-04,2021-12-04,2022-06-02,PLC,Fulvestrant + Placebo,PLC,Fulvestrant + Placebo,N,
SYNTH-ONC-001,DM,SYNTH-ONC-001-0040,0040,40,65,F,2022-10-03,2022-10-03,2024-02-18,TRT,Fulvestrant + Everolimus,TRT,Fulvestrant + Everolimus,N,
SYNTH-ONC-001,DM,SYNTH-ONC-001-0041,0041,41,44,F,2022-04-18,2022-04-18,2022-12-20,TRT,Fulvestrant + Everolimus,TRT,Fulvestrant + Everolimus,N,
SYNTH-ONC-001,DM,SYNTH-ONC-001-0042,0042,42,57,F,2021-05-31,2021-05-31,2022-02-02,PLC,Fulvestrant + Placebo,PLC,Fulvestrant + Placebo,Y,2022-02-25
SYNTH-ONC-001,DM,SYNTH-ONC-001-0043,0043,43,59,F,2022-02-19,2022-02-19,2022-05-07,TRT,Fulvestrant + Everolimus,TRT,Fulvestrant + Everolimus,Y,2023-04-03
SYNTH-ONC-001,DM,SYNTH-ONC-001-0044,0044,44,59,F,2021-10-25,2021-10-25,2022-10-16,TRT,Fulvestrant + Everolimus,TRT,Fulvestrant + Everolimus,Y,2024-02-11
SYNTH-ONC-001,DM,SYNTH-ONC-001-0045,0045,45,66,F,2022-09-03,2022-09-03,2023-08-17,PLC,Fulvestrant + Placebo,PLC,Fulvestrant + Placebo,Y,2023-11-01
SYNTH-ONC-001,DM,SYNTH-ONC-001-0046,0046,46,59,F,2021-09-20,2021-09-20,2022-05-30,PLC,Fulvestrant + Placebo,PLC,Fulvestrant + Placebo,N,
SYNTH-ONC-001,DM,SYNTH-ONC-001-0047,0047,47,43,F,2021-05-24,2021-05-24,2022-11-17,TRT,Fulvestrant + Everolimus,TRT,Fulvestrant + Everolimus,N,
SYNTH-ONC-001,DM,SYNTH-ONC-001-0048,0048,48,60,F,2021-12-12,2021-12-12,2022-04-20,TRT,Fulvestrant + Everolimus,TRT,Fulvestrant + Everolimus,Y,2022-10-28
SYNTH-ONC-001,DM,SYNTH-ONC-001-0049,0049,49,46,F,2022-09-16,2022-09-16,2023-05-12,PLC,Fulvestrant + Placebo,PLC,Fulvestrant + Placebo,Y,2023-11-10
SYNTH-ONC-001,DM,SYNTH-ONC-001-0050,0050,50,48,F,2022-07-26,2022-07-26,2023-03-16,TRT,Fulvestrant + Everolimus,TRT,Fulvestrant + Everolimus,Y,2024-09-11
SYNTH-ONC-001,DM,SYNTH-ONC-001-0051,0051,51,50,F,2021-01-02,2021-01-02,2021-04-21,PLC,Fulvestrant + Placebo,PLC,Fulvestrant + Placebo,Y,2022-05-25
SYNTH-ONC-001,DM,SYNTH-ONC-001-0052,0052,52,53,F,2021-10-31,2021-10-31,2022-09-15,PLC,Fulvestrant + Placebo,PLC,Fulvestrant + Placebo,Y,2022-12-29
SYNTH-ONC-001,DM,SYNTH-ONC-001-0053,0053,53,39,F,2021-09-11,2021-09-11,2022-11-16,TRT,Fulvestrant + Everolimus,TRT,Fulvestrant + Everolimus,Y,2026-01-20
SYNTH-ONC-001,DM,SYNTH-ONC-001-0054,0054,54,66,F,2022-10-14,2022-10-14,2023-09-15,PLC,Fulvestrant + Placebo,PLC,Fulvestrant + Placebo,Y,2023-03-23
SYNTH-ONC-001,DM,SYNTH-ONC-001-0055,0055,55,43,F,2022-03-29,2022-03-29,2022-08-20,PLC,Fulvestrant + Placebo,PLC,Fulvestrant + Placebo,Y,2024-03-29
SYNTH-ONC-001,DM,SYNTH-ONC-001-0056,0056,56,70,F,2021-02-06,2021-02-06,2021-10-27,TRT,Fulvestrant + Everolimus,TRT,Fulvestrant + Everolimus,N,
SYNTH-ONC-001,DM,SYNTH-ONC-001-0057,0057,57,43,F,2021-06-09,2021-06-09,2021-08-09,PLC,Fulvestrant + Placebo,PLC,Fulvestrant + Placebo,Y,2022-05-12
SYNTH-ONC-001,DM,SYNTH-ONC-001-0058,0058,58,67,F,2021-01-09,2021-01-09,2022-06-21,TRT,Fulvestrant + Everolimus,TRT,Fulvestrant + Everolimus,Y,2022-07-30
SYNTH-ONC-001,DM,SYNTH-ONC-001-0059,0059,59,54,F,2021-08-21,2021-08-21,2021-12-04,PLC,Fulvestrant + Placebo,PLC,Fulvestrant + Placebo,Y,2022-09-19
SYNTH-ONC-001,DM,SYNTH-ONC-001-0060,0060,60,37,F,2021-04-09,2021-04-09,2022-04-26,TRT,Fulvestrant + Everolimus,TRT,Fulvestrant + Everolimus,Y,2021-09-04
SYNTH-ONC-001,DM,SYNTH-ONC-001-0061,0061,61,44,F,2022-10-21,2022-10-21,2024-06-04,PLC,Fulvestrant + Placebo,PLC,Fulvestrant + Placebo,N,
SYNTH-ONC-001,DM,SYNTH-ONC-001-0062,0062,62,68,F,2021-07-27,2021-07-27,2022-07-11,TRT,Fulvestrant + Everolimus,TRT,Fulvestrant + Everolimus,Y,2023-06-03
SYNTH-ONC-001,DM,SYNTH-ONC-001-0063,0063,63,59,F,2021-05-11,2021-05-11,2022-11-20,TRT,Fulvestrant + Everolimus,TRT,Fulvestrant + Everolimus,Y,2023-08-28
SYNTH-ONC-001,DM,SYNTH-ONC-001-0064,0064,64,54,F,2022-02-08,2022-02-08,2022-08-14,TRT,Fulvestrant + Everolimus,TRT,Fulvestrant + Everolimus,Y,2022-12-29
SYNTH-ONC-001,DM,SYNTH-ONC-001-0065,0065,65,32,F,2021-06-01,2021-06-01,2022-09-14,TRT,Fulvestrant + Everolimus,TRT,Fulvestrant + Everolimus,N,
SYNTH-ONC-001,DM,SYNTH-ONC-001-0066,0066,66,68,F,2021-02-23,2021-02-23,2022-02-04,PLC,Fulvestrant + Placebo,PLC,Fulvestrant + Placebo,Y,2022-03-25
SYNTH-ONC-001,DM,SYNTH-ONC-001-0067,0067,67,73,F,2021-04-30,2021-04-30,2022-07-23,TRT,Fulvestrant + Everolimus,TRT,Fulvestrant + Everolimus,Y,2023-03-21
SYNTH-ONC-001,DM,SYNTH-ONC-001-0068,0068,68,71,F,2022-11-04,2022-11-04,2023-02-05,PLC,Fulvestrant + Placebo,PLC,Fulvestrant + Placebo,N,
SYNTH-ONC-001,DM,SYNTH-ONC-001-0069,0069,69,48,F,2022-09-20,2022-09-20,2023-02-06,TRT,Fulvestrant + Everolimus,TRT,Fulvestrant + Everolimus,N,
SYNTH-ONC-001,DM,SYNTH-ONC-001-0070,0070,70,58,F,2022-08-10,2022-08-10,2022-12-19,PLC,Fulvestrant + Placebo,PLC,Fulvestrant + Placebo,N,
SYNTH-ONC-001,DM,SYNTH-ONC-001-0071,0071,71,59,F,2022-09-17,2022-09-17,2023-11-22,TRT,Fulvestrant + Everolimus,TRT,Fulvestrant + Everolimus,Y,2023-08-11
SYNTH-ONC-001,DM,SYNTH-ONC-001-0072,0072,72,39,F,2022-02-24,2022-02-24,2023-07-24,PLC,Fulvestrant + Placebo,PLC,Fulvestrant + Placebo,Y,2022-09-06
SYNTH-ONC-001,DM,SYNTH-ONC-001-0073,0073,73,56,F,2022-02-26,2022-02-26,2023-06-05,PLC,Fulvestrant + Placebo,PLC,Fulvestrant + Placebo,Y,2023-12-04
SYNTH-ONC-001,DM,SYNTH-ONC-001-0074,0074,74,65,F,2021-04-14,2021-04-14,2021-06-29,TRT,Fulvestrant + Everolimus,TRT,Fulvestrant + Everolimus,Y,2021-10-27
SYNTH-ONC-001,DM,SYNTH-ONC-001-0075,0075,75,62,F,2021-09-11,2021-09-11,2023-02-21,PLC,Fulvestrant + Placebo,PLC,Fulvestrant + Placebo,Y,2022-10-24
SYNTH-ONC-001,DM,SYNTH-ONC-001-0076,0076,76,43,F,2021-08-15,2021-08-15,2022-04-23,PLC,Fulvestrant + Placebo,PLC,Fulvestrant + Placebo,N,
SYNTH-ONC-001,DM,SYNTH-ONC-001-0077,0077,77,46,F,2021-04-22,2021-04-22,2022-01-21,TRT,Fulvestrant + Everolimus,TRT,Fulvestrant + Everolimus,Y,2022-10-13
SYNTH-ONC-001,DM,SYNTH-ONC-001-0078,0078,78,62,F,2022-05-25,2022-05-25,2022-09-18,PLC,Fulvestrant + Placebo,PLC,Fulvestrant + Placebo,Y,2024-01-31
SYNTH-ONC-001,DM,SYNTH-ONC-001-0079,0079,79,61,F,2022-04-18,2022-04-18,2023-07-20,PLC,Fulvestrant + Placebo,PLC,Fulvestrant + Placebo,N,
SYNTH-ONC-001,DM,SYNTH-ONC-001-0080,0080,80,32,F,2021-04-09,2021-04-09,2021-09-14,PLC,Fulvestrant + Placebo,PLC,Fulvestrant + Placebo,Y,2022-04-05
SYNTH-ONC-001,DM,SYNTH-ONC-001-0081,0081,81,30,F,2021-06-02,2021-06-02,2022-06-01,TRT,Fulvestrant + Everolimus,TRT,Fulvestrant + Everolimus,Y,2022-01-22
SYNTH-ONC-001,DM,SYNTH-ONC-001-0082,0082,82,54,F,2021-12-04,2021-12-04,2023-05-01,TRT,Fulvestrant + Everolimus,TRT,Fulvestrant + Everolimus,Y,2025-05-27
SYNTH-ONC-001,DM,SYNTH-ONC-001-0083,0083,83,49,F,2022-12-07,2022-12-07,2023-03-25,TRT,Fulvestrant + Everolimus,TRT,Fulvestrant + Everolimus,Y,2024-01-07
SYNTH-ONC-001,DM,SYNTH-ONC-001-0084,0084,84,52,F,2021-06-12,2021-06-12,2022-05-27,PLC,Fulvestrant + Placebo,PLC,Fulvestrant + Placebo,N,
SYNTH-ONC-001,DM,SYNTH-ONC-001-0085,0085,85,50,F,2022-12-21,2022-12-21,2023-06-24,PLC,Fulvestrant + Placebo,PLC,Fulvestrant + Placebo,Y,2024-04-12
SYNTH-ONC-001,DM,SYNTH-ONC-001-0086,0086,86,64,F,2022-11-12,2022-11-12,2023-07-15,TRT,Fulvestrant + Everolimus,TRT,Fulvestrant + Everolimus,Y,2026-12-31
SYNTH-ONC-001,DM,SYNTH-ONC-001-0087,0087,87,56,F,2021-06-10,2021-06-10,2022-04-21,PLC,Fulvestrant + Placebo,PLC,Fulvestrant + Placebo,Y,2022-03-09
SYNTH-ONC-001,DM,SYNTH-ONC-001-0088,0088,88,57,F,2022-08-03,2022-08-03,2023-04-11,TRT,Fulvestrant + Everolimus,TRT,Fulvestrant + Everolimus,N,
SYNTH-ONC-001,DM,SYNTH-ONC-001-0089,0089,89,41,F,2022-02-02,2022-02-02,2023-03-19,PLC,Fulvestrant + Placebo,PLC,Fulvestrant + Placebo,N,
SYNTH-ONC-001,DM,SYNTH-ONC-001-0090,0090,90,21,F,2021-10-04,2021-10-04,2022-08-18,TRT,Fulvestrant + Everolimus,TRT,Fulvestrant + Everolimus,Y,2022-02-16
SYNTH-ONC-001,DM,SYNTH-ONC-001-0091,0091,91,66,F,2022-05-19,2022-05-19,2023-05-29,TRT,Fulvestrant + Everolimus,TRT,Fulvestrant + Everolimus,Y,2022-09-25
SYNTH-ONC-001,DM,SYNTH-ONC-001-0092,0092,92,76,F,2022-01-27,2022-01-27,2023-04-29,PLC,Fulvestrant + Placebo,PLC,Fulvestrant + Placebo,N,
SYNTH-ONC-001,DM,SYNTH-ONC-001-0093,0093,93,51,F,2021-05-15,2021-05-15,2022-05-11,PLC,Fulvestrant + Placebo,PLC,Fulvestrant + Placebo,Y,2023-01-08
SYNTH-ONC-001,DM,SYNTH-ONC-001-0094,0094,94,57,F,2021-07-14,2021-07-14,2022-07-25,TRT,Fulvestrant + Everolimus,TRT,Fulvestrant + Everolimus,Y,2022-11-10
SYNTH-ONC-001,DM,SYNTH-ONC-001-0095,0095,95,58,F,2022-02-05,2022-02-05,2023-02-04,TRT,Fulvestrant + Everolimus,TRT,Fulvestrant + Everolimus,Y,2023-03-08
SYNTH-ONC-001,DM,SYNTH-ONC-001-0096,0096,96,71,F,2022-10-02,2022-10-02,2023-06-23,PLC,Fulvestrant + Placebo,PLC,Fulvestrant + Placebo,Y,2024-03-09
SYNTH-ONC-001,DM,SYNTH-ONC-001-0097,0097,97,63,F,2021-02-02,2021-02-02,2021-10-02,PLC,Fulvestrant + Placebo,PLC,Fulvestrant + Placebo,N,
SYNTH-ONC-001,DM,SYNTH-ONC-001-0098,0098,98,59,F,2022-11-19,2022-11-19,2024-05-17,TRT,Fulvestrant + Everolimus,TRT,Fulvestrant + Everolimus,Y,2025-09-01
SYNTH-ONC-001,DM,SYNTH-ONC-001-0099,0099,99,55,F,2022-04-05,2022-04-05,2023-04-28,TRT,Fulvestrant + Everolimus,TRT,Fulvestrant + Everolimus,N,
SYNTH-ONC-001,DM,SYNTH-ONC-001-0100,0100,100,55,F,2022-04-15,2022-04-15,2022-10-23,PLC,Fulvestrant + Placebo,PLC,Fulvestrant + Placebo,Y,2024-10-28
SYNTH-ONC-001,DM,SYNTH-ONC-001-0101,0101,101,40,F,2022-01-10,2022-01-10,2022-12-05,TRT,Fulvestrant + Everolimus,TRT,Fulvestrant + Everolimus,Y,2022-11-01
SYNTH-ONC-001,DM,SYNTH-ONC-001-0102,0102,102,51,F,2021-01-22,2021-01-22,2021-09-17,TRT,Fulvestrant + Everolimus,TRT,Fulvestrant + Everolimus,Y,2021-05-01
SYNTH-ONC-001,DM,SYNTH-ONC-001-0103,0103,103,63,F,2022-11-01,2022-11-01,2024-05-18,PLC,Fulvestrant + Placebo,PLC,Fulvestrant + Placebo,N,
SYNTH-ONC-001,DM,SYNTH-ONC-001-0104,0104,104,52,F,2021-02-07,2021-02-07,2021-04-12,PLC,Fulvestrant + Placebo,PLC,Fulvestrant + Placebo,Y,2021-10-11
SYNTH-ONC-001,DM,SYNTH-ONC-001-0105,0105,105,55,F,2021-08-18,2021-08-18,2022-02-15,PLC,Fulvestrant + Placebo,PLC,Fulvestrant + Placebo,N,
SYNTH-ONC-001,DM,SYNTH-ONC-001-0106,0106,106,43,F,2021-12-31,2021-12-31,2022-09-14,PLC,Fulvestrant + Placebo,PLC,Fulvestrant + Placebo,N,
SYNTH-ONC-001,DM,SYNTH-ONC-001-0107,0107,107,59,F,2022-07-17,2022-07-17,2023-06-05,TRT,Fulvestrant + Everolimus,TRT,Fulvestrant + Everolimus,Y,2025-04-25
SYNTH-ONC-001,DM,SYNTH-ONC-001-0108,0108,108,40,F,2022-03-14,2022-03-14,2023-08-15,TRT,Fulvestrant + Everolimus,TRT,Fulvestrant + Everolimus,Y,2022-07-08
SYNTH-ONC-001,DM,SYNTH-ONC-001-0109,0109,109,57,F,2021-10-10,2021-10-10,2022-01-25,PLC,Fulvestrant + Placebo,PLC,Fulvestrant + Placebo,Y,2022-03-24
SYNTH-ONC-001,DM,SYNTH-ONC-001-0110,0110,110,53,F,2021-01-27,2021-01-27,2022-06-06,PLC,Fulvestrant + Placebo,PLC,Fulvestrant + Placebo,Y,2023-02-25
SYNTH-ONC-001,DM,SYNTH-ONC-001-0111,0111,111,37,F,2021-08-14,2021-08-14,2021-11-12,PLC,Fulvestrant + Placebo,PLC,Fulvestrant + Placebo,Y,2022-03-17
SYNTH-ONC-001,DM,SYNTH-ONC-001-0112,0112,112,65,F,2021-10-04,2021-10-04,2023-03-02,TRT,Fulvestrant + Everolimus,TRT,Fulvestrant + Everolimus,N,
SYNTH-ONC-001,DM,SYNTH-ONC-001-0113,0113,113,53,F,2022-09-01,2022-09-01,2022-11-27,PLC,Fulvestrant + Placebo,PLC,Fulvestrant + Placebo,N,
SYNTH-ONC-001,DM,SYNTH-ONC-001-0114,0114,114,73,F,2021-10-11,2021-10-11,2021-12-19,PLC,Fulvestrant + Placebo,PLC,Fulvestrant + Placebo,Y,2022-09-12
SYNTH-ONC-001,DM,SYNTH-ONC-001-0115,0115,115,69,F,2022-04-26,2022-04-26,2023-07-06,TRT,Fulvestrant + Everolimus,TRT,Fulvestrant + Everolimus,Y,2022-09-27
SYNTH-ONC-001,DM,SYNTH-ONC-001-0116,0116,116,46,F,2022-03-29,2022-03-29,2023-11-17,PLC,Fulvestrant + Placebo,PLC,Fulvestrant + Placebo,Y,2022-07-24
SYNTH-ONC-001,DM,SYNTH-ONC-001-0117,0117,117,47,F,2022-10-21,2022-10-21,2024-04-17,TRT,Fulvestrant + Everolimus,TRT,Fulvestrant + Everolimus,Y,2026-07-29
SYNTH-ONC-001,DM,SYNTH-ONC-001-0118,0118,118,43,F,2022-05-31,2022-05-31,2023-06-06,TRT,Fulvestrant + Everolimus,TRT,Fulvestrant + Everolimus,Y,2023-06-17
SYNTH-ONC-001,DM,SYNTH-ONC-001-0119,0119,119,39,F,2022-07-01,2022-07-01,2024-01-07,PLC,Fulvestrant + Placebo,PLC,Fulvestrant + Placebo,Y,2023-06-16
SYNTH-ONC-001,DM,SYNTH-ONC-001-0120,0120,120,50,F,2021-07-11,2021-07-11,2021-09-11,TRT,Fulvestrant + Everolimus,TRT,Fulvestrant + Everolimus,Y,2022-05-06
SYNTH-ONC-001,DM,SYNTH-ONC-001-0121,0121,121,69,F,2021-02-18,2021-02-18,2022-09-27,TRT,Fulvestrant + Everolimus,TRT,Fulvestrant + Everolimus,N,
SYNTH-ONC-001,DM,SYNTH-ONC-001-0122,0122,122,35,F,2022-05-27,2022-05-27,2023-04-17,PLC,Fulvestrant + Placebo,PLC,Fulvestrant + Placebo,Y,2023-01-16
SYNTH-ONC-001,DM,SYNTH-ONC-001-0123,0123,123,63,F,2021-01-17,2021-01-17,2022-04-12,PLC,Fulvestrant + Placebo,PLC,Fulvestrant + Placebo,Y,2022-10-09
SYNTH-ONC-001,DM,SYNTH-ONC-001-0124,0124,124,62,F,2021-06-21,2021-06-21,2022-11-06,PLC,Fulvestrant + Placebo,PLC,Fulvestrant + Placebo,N,
SYNTH-ONC-001,DM,SYNTH-ONC-001-0125,0125,125,60,F,2021-08-08,2021-08-08,2022-10-29,TRT,Fulvestrant + Everolimus,TRT,Fulvestrant + Everolimus,Y,2022-08-09
SYNTH-ONC-001,DM,SYNTH-ONC-001-0126,0126,126,62,F,2021-06-07,2021-06-07,2022-05-21,TRT,Fulvestrant + Everolimus,TRT,Fulvestrant + Everolimus,Y,2022-05-03
SYNTH-ONC-001,DM,SYNTH-ONC-001-0127,0127,127,43,F,2022-04-22,2022-04-22,2023-03-05,PLC,Fulvestrant + Placebo,PLC,Fulvestrant + Placebo,Y,2022-11-26
SYNTH-ONC-001,DM,SYNTH-ONC-001-0128,0128,128,62,F,2021-02-15,2021-02-15,2022-07-12,PLC,Fulvestrant + Placebo,PLC,Fulvestrant + Placebo,Y,2021-11-09
SYNTH-ONC-001,DM,SYNTH-ONC-001-0129,0129,129,49,F,2022-01-08,2022-01-08,2022-06-27,TRT,Fulvestrant + Everolimus,TRT,Fulvestrant + Everolimus,Y,2026-10-16
SYNTH-ONC-001,DM,SYNTH-ONC-001-0130,0130,130,30,F,2022-06-02,2022-06-02,2024-01-05,TRT,Fulvestrant + Everolimus,TRT,Fulvestrant + Everolimus,N,
SYNTH-ONC-001,DM,SYNTH-ONC-001-0131,0131,131,55,F,2021-04-09,2021-04-09,2022-06-26,PLC,Fulvestrant + Placebo,PLC,Fulvestrant + Placebo,Y,2022-06-26
SYNTH-ONC-001,DM,SYNTH-ONC-001-0132,0132,132,46,F,2021-02-06,2021-02-06,2021-07-23,TRT,Fulvestrant + Everolimus,TRT,Fulvestrant + Everolimus,N,
SYNTH-ONC-001,DM,SYNTH-ONC-001-0133,0133,133,68,F,2021-10-07,2021-10-07,2023-01-07,TRT,Fulvestrant + Everolimus,TRT,Fulvestrant + Everolimus,Y,2023-04-15
SYNTH-ONC-001,DM,SYNTH-ONC-001-0134,0134,134,52,F,2021-12-15,2021-12-15,2022-11-26,PLC,Fulvestrant + Placebo,PLC,Fulvestrant + Placebo,Y,2022-11-28
SYNTH-ONC-001,DM,SYNTH-ONC-001-0135,0135,135,55,F,2022-05-12,2022-05-12,2023-07-27,TRT,Fulvestrant + Everolimus,TRT,Fulvestrant + Everolimus,Y,2023-01-24
SYNTH-ONC-001,DM,SYNTH-ONC-001-0136,0136,136,58,F,2021-10-29,2021-10-29,2023-02-15,PLC,Fulvestrant + Placebo,PLC,Fulvestrant + Placebo,Y,2022-12-10
SYNTH-ONC-001,DM,SYNTH-ONC-001-0137,0137,137,52,F,2021-06-30,2021-06-30,2021-10-15,TRT,Fulvestrant + Everolimus,TRT,Fulvestrant + Everolimus,Y,2022-10-02
SYNTH-ONC-001,DM,SYNTH-ONC-001-0138,0138,138,53,F,2022-08-30,2022-08-30,2023-07-29,PLC,Fulvestrant + Placebo,PLC,Fulvestrant + Placebo,Y,2024-06-01
SYNTH-ONC-001,DM,SYNTH-ONC-001-0139,0139,139,63,F,2021-04-09,2021-04-09,2022-10-24,TRT,Fulvestrant + Everolimus,TRT,Fulvestrant + Everolimus,N,
SYNTH-ONC-001,DM,SYNTH-ONC-001-0140,0140,140,44,F,2022-12-01,2022-12-01,2023-07-22,PLC,Fulvestrant + Placebo,PLC,Fulvestrant + Placebo,Y,2023-08-28
SYNTH-ONC-001,DM,SYNTH-ONC-001-0141,0141,141,47,F,2021-04-26,2021-04-26,2022-05-11,PLC,Fulvestrant + Placebo,PLC,Fulvestrant + Placebo,Y,2021-11-25
SYNTH-ONC-001,DM,SYNTH-ONC-001-0142,0142,142,45,F,2021-07-10,2021-07-10,2022-03-26,PLC,Fulvestrant + Placebo,PLC,Fulvestrant + Placebo,Y,2021-10-26
SYNTH-ONC-001,DM,SYNTH-ONC-001-0143,0143,143,69,F,2021-09-10,2021-09-10,2022-07-12,PLC,Fulvestrant + Placebo,PLC,Fulvestrant + Placebo,N,
SYNTH-ONC-001,DM,SYNTH-ONC-001-0144,0144,144,47,F,2021-06-10,2021-06-10,2022-06-01,TRT,Fulvestrant + Everolimus,TRT,Fulvestrant + Everolimus,Y,2022-03-10
SYNTH-ONC-001,DM,SYNTH-ONC-001-0145,0145,145,53,F,2021-09-13,2021-09-13,2022-09-04,TRT,Fulvestrant + Everolimus,TRT,Fulvestrant + Everolimus,N,
SYNTH-ONC-001,DM,SYNTH-ONC-001-0146,0146,146,48,F,2021-11-19,2021-11-19,2022-05-06,TRT,Fulvestrant + Everolimus,TRT,Fulvestrant + Everolimus,Y,2024-08-09
SYNTH-ONC-001,DM,SYNTH-ONC-001-0147,0147,147,51,F,2021-05-08,2021-05-08,2022-07-11,TRT,Fulvestrant + Everolimus,TRT,Fulvestrant + Everolimus,Y,2024-03-26
SYNTH-ONC-001,DM,SYNTH-ONC-001-0148,0148,148,47,F,2021-01-18,2021-01-18,2021-05-05,PLC,Fulvestrant + Placebo,PLC,Fulvestrant + Placebo,Y,2021-11-20
SYNTH-ONC-001,DM,SYNTH-ONC-001-0149,0149,149,59,F,2022-07-20,2022-07-20,2022-12-01,TRT,Fulvestrant + Everolimus,TRT,Fulvestrant + Everolimus,Y,2025-05-15
SYNTH-ONC-001,DM,SYNTH-ONC-001-0150,0150,150,44,F,2022-07-24,2022-07-24,2022-09-23,TRT,Fulvestrant + Everolimus,TRT,Fulvestrant + Everolimus,N,
SYNTH-ONC-001,DM,SYNTH-ONC-001-0151,0151,151,41,F,2021-11-19,2021-11-19,2022-03-22,PLC,Fulvestrant + Placebo,PLC,Fulvestrant + Placebo,Y,2024-07-04
SYNTH-ONC-001,DM,SYNTH-ONC-001-0152,0152,152,49,F,2022-11-17,2022-11-17,2023-09-28,PLC,Fulvestrant + Placebo,PLC,Fulvestrant + Placebo,N,
SYNTH-ONC-001,DM,SYNTH-ONC-001-0153,0153,153,47,F,2022-09-18,2022-09-18,2023-10-10,TRT,Fulvestrant + Everolimus,TRT,Fulvestrant + Everolimus,Y,2023-09-10
SYNTH-ONC-001,DM,SYNTH-ONC-001-0154,0154,154,41,F,2021-10-15,2021-10-15,2023-02-15,TRT,Fulvestrant + Everolimus,TRT,Fulvestrant + Everolimus,N,
SYNTH-ONC-001,DM,SYNTH-ONC-001-0155,0155,155,51,F,2022-10-25,2022-10-25,2023-02-19,TRT,Fulvestrant + Everolimus,TRT,Fulvestrant + Everolimus,Y,2023-04-14
SYNTH-ONC-001,DM,SYNTH-ONC-001-0156,0156,156,38,F,2022-10-01,2022-10-01,2024-03-03,TRT,Fulvestrant + Everolimus,TRT,Fulvestrant + Everolimus,N,
SYNTH-ONC-001,DM,SYNTH-ONC-001-0157,0157,157,72,F,2021-06-04,2021-06-04,2022-09-09,PLC,Fulvestrant + Placebo,PLC,Fulvestrant + Placebo,Y,2021-12-12
SYNTH-ONC-001,DM,SYNTH-ONC-001-0158,0158,158,40,F,2022-05-05,2022-05-05,2023-02-09,PLC,Fulvestrant + Placebo,PLC,Fulvestrant + Placebo,N,
SYNTH-ONC-001,DM,SYNTH-ONC-001-0159,0159,159,48,F,2022-01-21,2022-01-21,2023-08-07,TRT,Fulvestrant + Everolimus,TRT,Fulvestrant + Everolimus,Y,2023-05-05
SYNTH-ONC-001,DM,SYNTH-ONC-001-0160,0160,160,50,F,2021-04-14,2021-04-14,2022-11-30,TRT,Fulvestrant + Everolimus,TRT,Fulvestrant + Everolimus,Y,2026-12-31
SYNTH-ONC-001,DM,SYNTH-ONC-001-0161,0161,161,71,F,2022-01-28,2022-01-28,2022-07-17,PLC,Fulvestrant + Placebo,PLC,Fulvestrant + Placebo,Y,2023-05-19
SYNTH-ONC-001,DM,SYNTH-ONC-001-0162,0162,162,37,F,2021-09-03,2021-09-03,2022-05-25,PLC,Fulvestrant + Placebo,PLC,Fulvestrant + Placebo,Y,2023-10-07
SYNTH-ONC-001,DM,SYNTH-ONC-001-0163,0163,163,56,F,2021-06-25,2021-06-25,2023-01-06,PLC,Fulvestrant + Placebo,PLC,Fulvestrant + Placebo,Y,2022-07-05
SYNTH-ONC-001,DM,SYNTH-ONC-001-0164,0164,164,65,F,2021-02-08,2021-02-08,2022-05-03,PLC,Fulvestrant + Placebo,PLC,Fulvestrant + Placebo,Y,2021-11-08
SYNTH-ONC-001,DM,SYNTH-ONC-001-0165,0165,165,51,F,2022-04-22,2022-04-22,2022-07-16,TRT,Fulvestrant + Everolimus,TRT,Fulvestrant + Everolimus,N,
SYNTH-ONC-001,DM,SYNTH-ONC-001-0166,0166,166,43,F,2022-11-13,2022-11-13,2024-03-09,TRT,Fulvestrant + Everolimus,TRT,Fulvestrant + Everolimus,Y,2023-09-20
SYNTH-ONC-001,DM,SYNTH-ONC-001-0167,0167,167,53,F,2022-06-22,2022-06-22,2023-11-11,PLC,Fulvestrant + Placebo,PLC,Fulvestrant + Placebo,Y,2025-01-21
SYNTH-ONC-001,DM,SYNTH-ONC-001-0168,0168,168,70,F,2022-02-12,2022-02-12,2023-05-23,TRT,Fulvestrant + Everolimus,TRT,Fulvestrant + Everolimus,N,
SYNTH-ONC-001,DM,SYNTH-ONC-001-0169,0169,169,48,F,2022-06-09,2022-06-09,2023-10-13,PLC,Fulvestrant + Placebo,PLC,Fulvestrant + Placebo,N,
SYNTH-ONC-001,DM,SYNTH-ONC-001-0170,0170,170,69,F,2022-05-21,2022-05-21,2023-10-08,TRT,Fulvestrant + Everolimus,TRT,Fulvestrant + Everolimus,N,
SYNTH-ONC-001,DM,SYNTH-ONC-001-0171,0171,171,57,F,2021-02-05,2021-02-05,2021-07-15,TRT,Fulvestrant + Everolimus,TRT,Fulvestrant + Everolimus,N,
SYNTH-ONC-001,DM,SYNTH-ONC-001-0172,0172,172,67,F,2022-11-16,2022-11-16,2023-05-22,TRT,Fulvestrant + Everolimus,TRT,Fulvestrant + Everolimus,Y,2024-01-12
SYNTH-ONC-001,DM,SYNTH-ONC-001-0173,0173,173,57,F,2021-01-20,2021-01-20,2022-02-26,TRT,Fulvestrant + Everolimus,TRT,Fulvestrant + Everolimus,Y,2022-03-04
SYNTH-ONC-001,DM,SYNTH-ONC-001-0174,0174,174,50,F,2021-11-17,2021-11-17,2023-05-21,TRT,Fulvestrant + Everolimus,TRT,Fulvestrant + Everolimus,Y,2022-07-12
SYNTH-ONC-001,DM,SYNTH-ONC-001-0175,0175,175,71,F,2022-05-27,2022-05-27,2023-01-12,PLC,Fulvestrant + Placebo,PLC,Fulvestrant + Placebo,Y,2024-12-22
SYNTH-ONC-001,DM,SYNTH-ONC-001-0176,0176,176,57,F,2022-02-04,2022-02-04,2023-02-16,PLC,Fulvestrant + Placebo,PLC,Fulvestrant + Placebo,N,
SYNTH-ONC-001,DM,SYNTH-ONC-001-0177,0177,177,56,F,2022-10-16,2022-10-16,2023-12-18,PLC,Fulvestrant + Placebo,PLC,Fulvestrant + Placebo,N,
SYNTH-ONC-001,DM,SYNTH-ONC-001-0178,0178,178,63,F,2022-04-16,2022-04-16,2023-02-14,TRT,Fulvestrant + Everolimus,TRT,Fulvestrant + Everolimus,N,
SYNTH-ONC-001,DM,SYNTH-ONC-001-0179,0179,179,64,F,2021-05-23,2021-05-23,2022-08-11,PLC,Fulvestrant + Placebo,PLC,Fulvestrant + Placebo,N,
SYNTH-ONC-001,DM,SYNTH-ONC-001-0180,0180,180,63,F,2021-04-02,2021-04-02,2022-09-29,PLC,Fulvestrant + Placebo,PLC,Fulvestrant + Placebo,Y,2023-04-27
SYNTH-ONC-001,DM,SYNTH-ONC-001-0181,0181,181,41,F,2021-12-20,2021-12-20,2023-01-21,TRT,Fulvestrant + Everolimus,TRT,Fulvestrant + Everolimus,Y,2022-03-15
SYNTH-ONC-001,DM,SYNTH-ONC-001-0182,0182,182,48,F,2022-12-28,2022-12-28,2023-12-14,TRT,Fulvestrant + Everolimus,TRT,Fulvestrant + Everolimus,Y,2023-07-18
SYNTH-ONC-001,DM,SYNTH-ONC-001-0183,0183,183,48,F,2021-02-20,2021-02-20,2021-12-13,PLC,Fulvestrant + Placebo,PLC,Fulvestrant + Placebo,N,
SYNTH-ONC-001,DM,SYNTH-ONC-001-0184,0184,184,47,F,2022-10-27,2022-10-27,2023-11-02,PLC,Fulvestrant + Placebo,PLC,Fulvestrant + Placebo,Y,2025-07-18
SYNTH-ONC-001,DM,SYNTH-ONC-001-0185,0185,185,46,F,2022-11-29,2022-11-29,2023-08-07,PLC,Fulvestrant + Placebo,PLC,Fulvestrant + Placebo,Y,2024-04-05
SYNTH-ONC-001,DM,SYNTH-ONC-001-0186,0186,186,48,F,2022-07-29,2022-07-29,2023-04-26,PLC,Fulvestrant + Placebo,PLC,Fulvestrant + Placebo,N,
SYNTH-ONC-001,DM,SYNTH-ONC-001-0187,0187,187,58,F,2021-07-09,2021-07-09,2022-06-21,TRT,Fulvestrant + Everolimus,TRT,Fulvestrant + Everolimus,Y,2023-03-27
SYNTH-ONC-001,DM,SYNTH-ONC-001-0188,0188,188,59,F,2021-05-05,2021-05-05,2021-08-08,PLC,Fulvestrant + Placebo,PLC,Fulvestrant + Placebo,Y,2023-01-06
SYNTH-ONC-001,DM,SYNTH-ONC-001-0189,0189,189,54,F,2021-05-30,2021-05-30,2021-11-29,TRT,Fulvestrant + Everolimus,TRT,Fulvestrant + Everolimus,N,
SYNTH-ONC-001,DM,SYNTH-ONC-001-0190,0190,190,50,F,2021-11-10,2021-11-10,2022-10-29,TRT,Fulvestrant + Everolimus,TRT,Fulvestrant + Everolimus,Y,2024-01-06
SYNTH-ONC-001,DM,SYNTH-ONC-001-0191,0191,191,67,F,2022-07-24,2022-07-24,2023-05-13,PLC,Fulvestrant + Placebo,PLC,Fulvestrant + Placebo,N,
SYNTH-ONC-001,DM,SYNTH-ONC-001-0192,0192,192,54,F,2021-12-08,2021-12-08,2022-08-04,PLC,Fulvestrant + Placebo,PLC,Fulvestrant + Placebo,Y,2022-11-01
SYNTH-ONC-001,DM,SYNTH-ONC-001-0193,0193,193,64,F,2021-11-01,2021-11-01,2023-01-29,TRT,Fulvestrant + Everolimus,TRT,Fulvestrant + Everolimus,Y,2022-12-05
SYNTH-ONC-001,DM,SYNTH-ONC-001-0194,0194,194,49,F,2022-11-23,2022-11-23,2024-01-31,PLC,Fulvestrant + Placebo,PLC,Fulvestrant + Placebo,Y,2023-10-04
SYNTH-ONC-001,DM,SYNTH-ONC-001-0195,0195,195,59,F,2022-11-13,2022-11-13,2023-04-12,TRT,Fulvestrant + Everolimus,TRT,Fulvestrant + Everolimus,Y,2023-06-28
SYNTH-ONC-001,DM,SYNTH-ONC-001-0196,0196,196,68,F,2021-02-23,2021-02-23,2022-08-11,PLC,Fulvestrant + Placebo,PLC,Fulvestrant + Placebo,Y,2021-09-18
SYNTH-ONC-001,DM,SYNTH-ONC-001-0197,0197,197,28,F,2022-03-20,2022-03-20,2023-02-10,TRT,Fulvestrant + Everolimus,TRT,Fulvestrant + Everolimus,Y,2024-06-05
SYNTH-ONC-001,DM,SYNTH-ONC-001-0198,0198,198,48,F,2022-09-05,2022-09-05,2023-12-09,TRT,Fulvestrant + Everolimus,TRT,Fulvestrant + Everolimus,Y,2024-04-27
SYNTH-ONC-001,DM,SYNTH-ONC-001-0199,0199,199,60,F,2021-09-21,2021-09-21,2022-09-25,PLC,Fulvestrant + Placebo,PLC,Fulvestrant + Placebo,Y,2024-05-10
SYNTH-ONC-001,DM,SYNTH-ONC-001-0200,0200,200,67,F,2021-02-22,2021-02-22,2022-10-13,PLC,Fulvestrant + Placebo,PLC,Fulvestrant + Placebo,Y,2021-11-23
