STUDYID,DOMAIN,USUBJID,DSSEQ,DSCAT,DSSCAT,DSDECOD,DSDTC,EPOCH
SYNTH-ONC-001,DS,SYNTH-ONC-001-0001,1,PROTOCOL MILESTONE,,RANDOMIZED,2022-02-07,SCREENING
SYNTH-ONC-001,DS,SYNTH-ONC-001-0001,2,DISPOSITION EVENT,FULVESTRANT,PROGRESSIVE DISEASE,2023-04-12,TREATMENT
SYNTH-ONC-001,DS,SYNTH-ONC-001-0001,3,DISPOSITION EVENT,EVEROLIMUS,PROGRESSIVE DISEASE,2023-04-12,TREATMENT
SYNTH-ONC-001,DS,SYNTH-ONC-001-0002,1,PROTOCOL MILESTONE,,RANDOMIZED,2022-09-30,SCREENING
SYNTH-ONC-001,DS,SYNTH-ONC-001-0002,2,DISPOSITION EVENT,FULVESTRANT,PROGRESSIVE DISEASE,2022-12-23,TREATMENT
SYNTH-ONC-001,DS,SYNTH-ONC-001-0002,3,DISPOSITION EVENT,EVEROLIMUS,PROGRESSIVE DISEASE,2022-12-23,TREATMENT
SYNTH-ONC-001,DS,SYNTH-ONC-001-0003,1,PROTOCOL MILESTONE,,RANDOMIZED,2021-05-10,SCREENING
SYNTH-ONC-001,DS,SYNTH-ONC-001-0003,2,DISPOSITION EVENT,FULVESTRANT,PROGRESSIVE DISEASE,2022-09-13,TREATMENT
SYNTH-ONC-001,DS,SYNTH-ONC-001-0003,3,DISPOSITION EVENT,EVEROLIMUS,PROGRESSIVE DISEASE,2022-09-13,TREATMENT
SYNTH-ONC-001,DS,SYNTH-ONC-001-0003,4,DISPOSITION EVENT,STUDY,DEATH,2022-10-06,FOLLOW-UP
SYNTH-ONC-001,DS,SYNTH-ONC-001-0004,1,PROTOCOL MILESTONE,,RANDOMIZED,2021-02-22,SCREENING
SYNTH-ONC-001,DS,SYNTH-ONC-001-0004,2,DISPOSITION EVENT,FULVESTRANT,PROGRESSIVE DISEASE,2021-05-25,TREATMENT
SYNTH-ONC-001,DS,SYNTH-ONC-001-0004,3,DISPOSITION EVENT,PLACEBO,PROGRESSIVE DISEASE,2021-05-25,TREATMENT
SYNTH-ONC-001,DS,SYNTH-ONC-001-0005,1,PROTOCOL MILESTONE,,RANDOMIZED,2022-11-15,SCREENING
SYNTH-ONC-001,DS,SYNTH-ONC-001-0005,2,DISPOSITION EVENT,FULVESTRANT,PROGRESSIVE DISEASE,2023-03-31,TREATMENT
SYNTH-ONC-001,DS,SYNTH-ONC-001-0005,3,DISPOSITION EVENT,PLACEBO,PROGRESSIVE DISEASE,2023-03-31,TREATMENT
SYNTH-ONC-001,DS,SYNTH-ONC-001-0006,1,PROTOCOL MILESTONE,,RANDOMIZED,2022-12-31,SCREENING
SYNTH-ONC-001,DS,SYNTH-ONC-001-0006,2,DISPOSITION EVENT,FULVESTRANT,PROGRESSIVE DISEASE,2023-04-12,TREATMENT
SYNTH-ONC-001,DS,SYNTH-ONC-001-0006,3,DISPOSITION EVENT,PLACEBO,PROGRESSIVE DISEASE,2023-04-12,TREATMENT
SYNTH-ONC-001,DS,SYNTH-ONC-001-0006,4,DISPOSITION EVENT,STUDY,DEATH,2023-06-13,FOLLOW-UP
SYNTH-ONC-001,DS,SYNTH-ONC-001-0007,1,PROTOCOL MILESTONE,,RANDOMIZED,2022-11-03,SCREENING
SYNTH-ONC-001,DS,SYNTH-ONC-001-0007,2,DISPOSITION EVENT,FULVESTRANT,PROGRESSIVE DISEASE,2023-09-18,TREATMENT
SYNTH-ONC-001,DS,SYNTH-ONC-001-0007,3,DISPOSITION EVENT,EVEROLIMUS,PROGRESSIVE DISEASE,2023-09-18,TREATMENT
SYNTH-ONC-001,DS,SYNTH-ONC-001-0008,1,PROTOCOL MILESTONE,,RANDOMIZED,2022-12-11,SCREENING
SYNTH-ONC-001,DS,SYNTH-ONC-001-0008,2,DISPOSITION EVENT,FULVESTRANT,PROGRESSIVE DISEASE,2023-06-07,TREATMENT
SYNTH-ONC-001,DS,SYNTH-ONC-001-0008,3,DISPOSITION EVENT,PLACEBO,PROGRESSIVE DISEASE,2023-06-07,TREATMENT
SYNTH-ONC-001,DS,SYNTH-ONC-001-0008,4,DISPOSITION EVENT,STUDY,DEATH,2024-08-29,FOLLOW-UP
SYNTH-ONC-001,DS,SYNTH-ONC-001-0009,1,PROTOCOL MILESTONE,,RANDOMIZED,2022-02-20,SCREENING
SYNTH-ONC-001,DS,SYNTH-ONC-001-0009,2,DISPOSITION EVENT,FULVESTRANT,WITHDRAWAL BY SUBJECT,2023-05-18,TREATMENT
SYNTH-ONC-001,DS,SYNTH-ONC-001-0009,3,DISPOSITION EVENT,PLACEBO,WITHDRAWAL BY SUBJECT,2023-05-18,TREATMENT
SYNTH-ONC-001,DS,SYNTH-ONC-001-0010,1,PROTOCOL MILESTONE,,RANDOMIZED,2021-09-04,SCREENING
SYNTH-ONC-001,DS,SYNTH-ONC-001-0010,2,DISPOSITION EVENT,FULVESTRANT,PROGRESSIVE DISEASE,2022-03-15,TREATMENT
SYNTH-ONC-001,DS,SYNTH-ONC-001-0010,3,DISPOSITION EVENT,EVEROLIMUS,PROGRESSIVE DISEASE,2022-03-15,TREATMENT
SYNTH-ONC-001,DS,SYNTH-ONC-001-0010,4,DISPOSITION EVENT,STUDY,DEATH,2023-01-13,FOLLOW-UP
SYNTH-ONC-001,DS,SYNTH-ONC-001-0011,1,PROTOCOL MILESTONE,,RANDOMIZED,2022-03-15,SCREENING
SYNTH-ONC-001,DS,SYNTH-ONC-001-0011,2,DISPOSITION EVENT,FULVESTRANT,PROGRESSIVE DISEASE,2024-07-12,TREATMENT
SYNTH-ONC-001,DS,SYNTH-ONC-001-0011,3,DISPOSITION EVENT,EVEROLIMUS,PROGRESSIVE DISEASE,2024-07-12,TREATMENT
SYNTH-ONC-001,DS,SYNTH-ONC-001-0011,4,DISPOSITION EVENT,STUDY,DEATH,2024-11-23,FOLLOW-UP
SYNTH-ONC-001,DS,SYNTH-ONC-001-0012,1,PROTOCOL MILESTONE,,RANDOMIZED,2021-07-22,SCREENING
SYNTH-ONC-001,DS,SYNTH-ONC-001-0012,2,DISPOSITION EVENT,FULVESTRANT,PROGRESSIVE DISEASE,2021-10-14,TREATMENT
SYNTH-ONC-001,DS,SYNTH-ONC-001-0012,3,DISPOSITION EVENT,PLACEBO,PROGRESSIVE DISEASE,2021-10-14,TREATMENT
SYNTH-ONC-001,DS,SYNTH-ONC-001-0012,4,DISPOSITION EVENT,STUDY,DEATH,2021-10-15,FOLLOW-UP
SYNTH-ONC-001,DS,SYNTH-ONC-001-0013,1,PROTOCOL MILESTONE,,RANDOMIZED,2021-07-03,SCREENING
SYNTH-ONC-001,DS,SYNTH-ONC-001-0013,2,DISPOSITION EVENT,FULVESTRANT,PROGRESSIVE DISEASE,2021-09-25,TREATMENT
SYNTH-ONC-001,DS,SYNTH-ONC-001-0013,3,DISPOSITION EVENT,PLACEBO,PROGRESSIVE DISEASE,2021-09-25,TREATMENT
SYNTH-ONC-001,DS,SYNTH-ONC-001-0013,4,DISPOSITION EVENT,STUDY,DEATH,2022-02-02,FOLLOW-UP
SYNTH-ONC-001,DS,SYNTH-ONC-001-0014,1,PROTOCOL MILESTONE,,RANDOMIZED,2021-05-03,SCREENING
SYNTH-ONC-001,DS,SYNTH-ONC-001-0014,2,DISPOSITION EVENT,FULVESTRANT,PROGRESSIVE DISEASE,2021-07-26,TREATMENT
SYNTH-ONC-001,DS,SYNTH-ONC-001-0014,3,DISPOSITION EVENT,EVEROLIMUS,PROGRESSIVE DISEASE,2021-07-26,TREATMENT
SYNTH-ONC-001,DS,SYNTH-ONC-001-0014,4,DISPOSITION EVENT,STUDY,DEATH,2022-05-06,FOLLOW-UP
SYNTH-ONC-001,DS,SYNTH-ONC-001-0015,1,PROTOCOL MILESTONE,,RANDOMIZED,2022-02-05,SCREENING
SYNTH-ONC-001,DS,SYNTH-ONC-001-0015,2,DISPOSITION EVENT,FULVESTRANT,PROGRESSIVE DISEASE,2022-05-07,TREATMENT
SYNTH-ONC-001,DS,SYNTH-ONC-001-0015,3,DISPOSITION EVENT,PLACEBO,PROGRESSIVE DISEASE,2022-05-07,TREATMENT
SYNTH-ONC-001,DS,SYNTH-ONC-001-0015,4,DISPOSITION EVENT,STUDY,DEATH,2022-06-10,FOLLOW-UP
SYNTH-ONC-001,DS,SYNTH-ONC-001-0016,1,PROTOCOL MILESTONE,,RANDOMIZED,2021-10-21,SCREENING
SYNTH-ONC-001,DS,SYNTH-ONC-001-0016,2,DISPOSITION EVENT,FULVESTRANT,PROGRESSIVE DISEASE,2022-01-13,TREATMENT
SYNTH-ONC-001,DS,SYNTH-ONC-001-0016,3,DISPOSITION EVENT,PLACEBO,PROGRESSIVE DISEASE,2022-01-13,TREATMENT
SYNTH-ONC-001,DS,SYNTH-ONC-001-0016,4,DISPOSITION EVENT,STUDY,DEATH,2023-03-14,FOLLOW-UP
SYNTH-ONC-001,DS,SYNTH-ONC-001-0017,1,PROTOCOL MILESTONE,,RANDOMIZED,2021-10-07,SCREENING
SYNTH-ONC-001,DS,SYNTH-ONC-001-0017,2,DISPOSITION EVENT,FULVESTRANT,COMPLETED,2022-08-11,TREATMENT
SYNTH-ONC-001,DS,SYNTH-ONC-001-0017,3,DISPOSITION EVENT,EVEROLIMUS,COMPLETED,2022-08-11,TREATMENT
SYNTH-ONC-001,DS,SYNTH-ONC-001-0018,1,PROTOCOL MILESTONE,,RANDOMIZED,2022-09-02,SCREENING
SYNTH-ONC-001,DS,SYNTH-ONC-001-0018,2,DISPOSITION EVENT,FULVESTRANT,PROGRESSIVE DISEASE,2022-11-25,TREATMENT
SYNTH-ONC-001,DS,SYNTH-ONC-001-0018,3,DISPOSITION EVENT,PLACEBO,PROGRESSIVE DISEASE,2022-11-25,TREATMENT
SYNTH-ONC-001,DS,SYNTH-ONC-001-0019,1,PROTOCOL MILESTONE,,RANDOMIZED,2021-07-17,SCREENING
SYNTH-ONC-001,DS,SYNTH-ONC-001-0019,2,DISPOSITION EVENT,FULVESTRANT,PROGRESSIVE DISEASE,2021-12-05,TREATMENT
SYNTH-ONC-001,DS,SYNTH-ONC-001-0019,3,DISPOSITION EVENT,EVEROLIMUS,PROGRESSIVE DISEASE,2021-12-05,TREATMENT
SYNTH-ONC-001,DS,SYNTH-ONC-001-0019,4,DISPOSITION EVENT,STUDY,DEATH,2022-01-27,FOLLOW-UP
SYNTH-ONC-001,DS,SYNTH-ONC-001-0020,1,PROTOCOL MILESTONE,,RANDOMIZED,2022-05-26,SCREENING
SYNTH-ONC-001,DS,SYNTH-ONC-001-0020,2,DISPOSITION EVENT,FULVESTRANT,PROGRESSIVE DISEASE,2023-04-18,TREATMENT
SYNTH-ONC-001,DS,SYNTH-ONC-001-0020,3,DISPOSITION EVENT,EVEROLIMUS,PROGRESSIVE DISEASE,2023-04-18,TREATMENT
SYNTH-ONC-001,DS,SYNTH-ONC-001-0020,4,DISPOSITION EVENT,STUDY,DEATH,2023-12-10,FOLLOW-UP
SYNTH-ONC-001,DS,SYNTH-ONC-001-0021,1,PROTOCOL MILESTONE,,RANDOMIZED,2021-05-24,SCREENING
SYNTH-ONC-001,DS,SYNTH-ONC-001-0021,2,DISPOSITION EVENT,FULVESTRANT,PROGRESSIVE DISEASE,2021-08-16,TREATMENT
SYNTH-ONC-001,DS,SYNTH-ONC-001-0021,3,DISPOSITION EVENT,PLACEBO,PROGRESSIVE DISEASE,2021-08-16,TREATMENT
SYNTH-ONC-001,DS,SYNTH-ONC-001-0022,1,PROTOCOL MILESTONE,,RANDOMIZED,2022-09-01,SCREENING
SYNTH-ONC-001,DS,SYNTH-ONC-001-0022,2,DISPOSITION EVENT,FULVESTRANT,PROGRESSIVE DISEASE,2022-11-24,TREATMENT
SYNTH-ONC-001,DS,SYNTH-ONC-001-0022,3,DISPOSITION EVENT,EVEROLIMUS,PROGRESSIVE DISEASE,2022-11-24,TREATMENT
SYNTH-ONC-001,DS,SYNTH-ONC-001-0022,4,DISPOSITION EVENT,STUDY,DEATH,2023-09-18,FOLLOW-UP
SYNTH-ONC-001,DS,SYNTH-ONC-001-0023,1,PROTOCOL MILESTONE,,RANDOMIZED,2021-07-20,SCREENING
SYNTH-ONC-001,DS,SYNTH-ONC-001-0023,2,DISPOSITION EVENT,FULVESTRANT,PROGRESSIVE DISEASE,2022-12-01,TREATMENT
SYNTH-ONC-001,DS,SYNTH-ONC-001-0023,3,DISPOSITION EVENT,PLACEBO,PROGRESSIVE DISEASE,2022-12-01,TREATMENT
SYNTH-ONC-001,DS,SYNTH-ONC-001-0024,1,PROTOCOL MILESTONE,,RANDOMIZED,2021-05-04,SCREENING
SYNTH-ONC-001,DS,SYNTH-ONC-001-0024,2,DISPOSITION EVENT,FULVESTRANT,PROGRESSIVE DISEASE,2023-09-28,TREATMENT
SYNTH-ONC-001,DS,SYNTH-ONC-001-0024,3,DISPOSITION EVENT,EVEROLIMUS,PROGRESSIVE DISEASE,2023-09-28,TREATMENT
SYNTH-ONC-001,DS,SYNTH-ONC-001-0024,4,DISPOSITION EVENT,STUDY,DEATH,2024-01-05,FOLLOW-UP
SYNTH-ONC-001,DS,SYNTH-ONC-001-0025,1,PROTOCOL MILESTONE,,RANDOMIZED,2021-07-06,SCREENING
SYNTH-ONC-001,DS,SYNTH-ONC-001-0025,2,DISPOSITION EVENT,FULVESTRANT,PROGRESSIVE DISEASE,2023-11-06,TREATMENT
SYNTH-ONC-001,DS,SYNTH-ONC-001-0025,3,DISPOSITION EVENT,EVEROLIMUS,PROGRESSIVE DISEASE,2023-11-06,TREATMENT
SYNTH-ONC-001,DS,SYNTH-ONC-001-0025,4,DISPOSITION EVENT,STUDY,DEATH,2023-12-24,FOLLOW-UP
SYNTH-ONC-001,DS,SYNTH-ONC-001-0026,1,PROTOCOL MILESTONE,,RANDOMIZED,2021-11-22,SCREENING
SYNTH-ONC-001,DS,SYNTH-ONC-001-0026,2,DISPOSITION EVENT,FULVESTRANT,PROGRESSIVE DISEASE,2022-02-14,TREATMENT
SYNTH-ONC-001,DS,SYNTH-ONC-001-0026,3,DISPOSITION EVENT,EVEROLIMUS,PROGRESSIVE DISEASE,2022-02-14,TREATMENT
SYNTH-ONC-001,DS,SYNTH-ONC-001-0027,1,PROTOCOL MILESTONE,,RANDOMIZED,2022-04-09,SCREENING
SYNTH-ONC-001,DS,SYNTH-ONC-001-0027,2,DISPOSITION EVENT,FULVESTRANT,PROGRESSIVE DISEASE,2023-09-21,TREATMENT
SYNTH-ONC-001,DS,SYNTH-ONC-001-0027,3,DISPOSITION EVENT,EVEROLIMUS,PROGRESSIVE DISEASE,2023-09-21,TREATMENT
SYNTH-ONC-001,DS,SYNTH-ONC-001-0027,4,DISPOSITION EVENT,STUDY,DEATH,2024-02-05,FOLLOW-UP
SYNTH-ONC-001,DS,SYNTH-ONC-001-0028,1,PROTOCOL MILESTONE,,RANDOMIZED,2021-12-15,SCREENING
SYNTH-ONC-001,DS,SYNTH-ONC-001-0028,2,DISPOSITION EVENT,FULVESTRANT,PROGRESSIVE DISEASE,2022-03-09,TREATMENT
SYNTH-ONC-001,DS,SYNTH-ONC-001-0028,3,DISPOSITION EVENT,EVEROLIMUS,PROGRESSIVE DISEASE,2022-03-09,TREATMENT
SYNTH-ONC-001,DS,SYNTH-ONC-001-0028,4,DISPOSITION EVENT,STUDY,DEATH,2022-05-15,FOLLOW-UP
SYNTH-ONC-001,DS,SYNTH-ONC-001-0029,1,PROTOCOL MILESTONE,,RANDOMIZED,2022-10-22,SCREENING
SYNTH-ONC-001,DS,SYNTH-ONC-001-0029,2,DISPOSITION EVENT,FULVESTRANT,COMPLETED,2023-11-01,TREATMENT
SYNTH-ONC-001,DS,SYNTH-ONC-001-0029,3,DISPOSITION EVENT,PLACEBO,COMPLETED,2023-11-01,TREATMENT
SYNTH-ONC-001,DS,SYNTH-ONC-001-0030,1,PROTOCOL MILESTONE,,RANDOMIZED,2022-02-07,SCREENING
SYNTH-ONC-001,DS,SYNTH-ONC-001-0030,2,DISPOSITION EVENT,FULVESTRANT,PROGRESSIVE DISEASE,2023-02-26,TREATMENT
SYNTH-ONC-001,DS,SYNTH-ONC-001-0030,3,DISPOSITION EVENT,PLACEBO,PROGRESSIVE DISEASE,2023-02-26,TREATMENT
SYNTH-ONC-001,DS,SYNTH-ONC-001-0030,4,DISPOSITION EVENT,STUDY,DEATH,2023-04-08,FOLLOW-UP
SYNTH-ONC-001,DS,SYNTH-ONC-001-0031,1,PROTOCOL MILESTONE,,RANDOMIZED,2021-12-12,SCREENING
SYNTH-ONC-001,DS,SYNTH-ONC-001-0031,2,DISPOSITION EVENT,FULVESTRANT,PROGRESSIVE DISEASE,2022-04-15,TREATMENT
SYNTH-ONC-001,DS,SYNTH-ONC-001-0031,3,DISPOSITION EVENT,EVEROLIMUS,PROGRESSIVE DISEASE,2022-04-15,TREATMENT
SYNTH-ONC-001,DS,SYNTH-ONC-001-0031,4,DISPOSITION EVENT,STUDY,DEATH,2022-06-07,FOLLOW-UP
SYNTH-ONC-001,DS,SYNTH-ONC-001-0032,1,PROTOCOL MILESTONE,,RANDOMIZED,2022-05-26,SCREENING
SYNTH-ONC-001,DS,SYNTH-ONC-001-0032,2,DISPOSITION EVENT,FULVESTRANT,PROGRESSIVE DISEASE,2022-12-06,TREATMENT
SYNTH-ONC-001,DS,SYNTH-ONC-001-0032,3,DISPOSITION EVENT,EVEROLIMUS,PROGRESSIVE DISEASE,2022-12-06,TREATMENT
SYNTH-ONC-001,DS,SYNTH-ONC-001-0032,4,DISPOSITION EVENT,STUDY,DEATH,2022-12-16,FOLLOW-UP
SYNTH-ONC-001,DS,SYNTH-ONC-001-0033,1,PROTOCOL MILESTONE,,RANDOMIZED,2021-05-27,SCREENING
SYNTH-ONC-001,DS,SYNTH-ONC-001-0033,2,DISPOSITION EVENT,FULVESTRANT,PROGRESSIVE DISEASE,2022-01-03,TREATMENT
SYNTH-ONC-001,DS,SYNTH-ONC-001-0033,3,DISPOSITION EVENT,EVEROLIMUS,PROGRESSIVE DISEASE,2022-01-03,TREATMENT
SYNTH-ONC-001,DS,SYNTH-ONC-001-0033,4,DISPOSITION EVENT,STUDY,DEATH,2022-03-01,FOLLOW-UP
SYNTH-ONC-001,DS,SYNTH-ONC-001-0034,1,PROTOCOL MILESTONE,,RANDOMIZED,2021-05-28,SCREENING
SYNTH-ONC-001,DS,SYNTH-ONC-001-0034,2,DISPOSITION EVENT,FULVESTRANT,PROGRESSIVE DISEASE,2023-02-20,TREATMENT
SYNTH-ONC-001,DS,SYNTH-ONC-001-0034,3,DISPOSITION EVENT,EVEROLIMUS,PROGRESSIVE DISEASE,2023-02-20,TREATMENT
SYNTH-ONC-001,DS,SYNTH-ONC-001-0034,4,DISPOSITION EVENT,STUDY,DEATH,2023-09-10,FOLLOW-UP
SYNTH-ONC-001,DS,SYNTH-ONC-001-0035,1,PROTOCOL MILESTONE,,RANDOMIZED,2022-12-12,SCREENING
SYNTH-ONC-001,DS,SYNTH-ONC-001-0035,2,DISPOSITION EVENT,FULVESTRANT,PROGRESSIVE DISEASE,2023-08-13,TREATMENT
SYNTH-ONC-001,DS,SYNTH-ONC-001-0035,3,DISPOSITION EVENT,PLACEBO,PROGRESSIVE DISEASE,2023-08-13,TREATMENT
SYNTH-ONC-001,DS,SYNTH-ONC-001-0035,4,DISPOSITION EVENT,STUDY,DEATH,2023-11-27,FOLLOW-UP
SYNTH-ONC-001,DS,SYNTH-ONC-001-0036,1,PROTOCOL MILESTONE,,RANDOMIZED,2022-05-04,SCREENING
SYNTH-ONC-001,DS,SYNTH-ONC-001-0036,2,DISPOSITION EVENT,FULVESTRANT,PROGRESSIVE DISEASE,2022-09-08,TREATMENT
SYNTH-ONC-001,DS,SYNTH-ONC-001-0036,3,DISPOSITION EVENT,PLACEBO,PROGRESSIVE DISEASE,2022-09-08,TREATMENT
SYNTH-ONC-001,DS,SYNTH-ONC-001-0036,4,DISPOSITION EVENT,STUDY,DEATH,2022-09-10,FOLLOW-UP
SYNTH-ONC-001,DS,SYNTH-ONC-001-0037,1,PROTOCOL MILESTONE,,RANDOMIZED,2022-10-02,SCREENING
SYNTH-ONC-001,DS,SYNTH-ONC-001-0037,2,DISPOSITION EVENT,FULVESTRANT,PROGRESSIVE DISEASE,2022-12-25,TREATMENT
SYNTH-ONC-001,DS,SYNTH-ONC-001-0037,3,DISPOSITION EVENT,PLACEBO,PROGRESSIVE DISEASE,2022-12-25,TREATMENT
SYNTH-ONC-001,DS,SYNTH-ONC-001-0037,4,DISPOSITION EVENT,STUDY,DEATH,2023-10-28,FOLLOW-UP
SYNTH-ONC-001,DS,SYNTH-ONC-001-0038,1,PROTOCOL MILESTONE,,RANDOMIZED,2022-07-05,SCREENING
SYNTH-ONC-001,DS,SYNTH-ONC-001-0038,2,DISPOSITION EVENT,FULVESTRANT,PROGRESSIVE DISEASE,2023-04-03,TREATMENT
SYNTH-ONC-001,DS,SYNTH-ONC-001-0038,3,DISPOSITION EVENT,PLACEBO,PROGRESSIVE DISEASE,2023-04-03,TREATMENT
SYNTH-ONC-001,DS,SYNTH-ONC-001-0038,4,DISPOSITION EVENT,STUDY,DEATH,2023-06-16,FOLLOW-UP
SYNTH-ONC-001,DS,SYNTH-ONC-001-0039,1,PROTOCOL MILESTONE,,RANDOMIZED,2021-12-04,SCREENING
SYNTH-ONC-001,DS,SYNTH-ONC-001-0039,2,DISPOSITION EVENT,FULVESTRANT,PROGRESSIVE DISEASE,2022-04-28,TREATMENT
SYNTH-ONC-001,DS,SYNTH-ONC-001-0039,3,DISPOSITION EVENT,PLACEBO,PROGRESSIVE DISEASE,2022-04-28,TREATMENT
SYNTH-ONC-001,DS,SYNTH-ONC-001-0040,1,PROTOCOL MILESTONE,,RANDOMIZED,2022-10-03,SCREENING
SYNTH-ONC-001,DS,SYNTH-ONC-001-0040,2,DISPOSITION EVENT,FULVESTRANT,WITHDRAWAL BY SUBJECT,2024-02-18,TREATMENT
SYNTH-ONC-001,DS,SYNTH-ONC-001-0040,3,DISPOSITION EVENT,EVEROLIMUS,WITHDRAWAL BY SUBJECT,2024-02-18,TREATMENT
SYNTH-ONC-001,DS,SYNTH-ONC-001-0041,1,PROTOCOL MILESTONE,,RANDOMIZED,2022-04-18,SCREENING
SYNTH-ONC-001,DS,SYNTH-ONC-001-0041,2,DISPOSITION EVENT,FULVESTRANT,COMPLETED,2022-12-20,TREATMENT
SYNTH-ONC-001,DS,SYNTH-ONC-001-0041,3,DISPOSITION EVENT,EVEROLIMUS,COMPLETED,2022-12-20,TREATMENT
SYNTH-ONC-001,DS,SYNTH-ONC-001-0042,1,PROTOCOL MILESTONE,,RANDOMIZED,2021-05-31,SCREENING
SYNTH-ONC-001,DS,SYNTH-ONC-001-0042,2,DISPOSITION EVENT,FULVESTRANT,PROGRESSIVE DISEASE,2021-08-23,TREATMENT
SYNTH-ONC-001,DS,SYNTH-ONC-001-0042,3,DISPOSITION EVENT,PLACEBO,PROGRESSIVE DISEASE,2021-08-23,TREATMENT
SYNTH-ONC-001,DS,SYNTH-ONC-001-0042,4,DISPOSITION EVENT,STUDY,DEATH,2022-02-25,FOLLOW-UP
SYNTH-ONC-001,DS,SYNTH-ONC-001-0043,1,PROTOCOL MILESTONE,,RANDOMIZED,2022-02-19,SCREENING
SYNTH-ONC-001,DS,SYNTH-ONC-001-0043,2,DISPOSITION EVENT,FULVESTRANT,PROGRESSIVE DISEASE,2023-01-01,TREATMENT
SYNTH-ONC-001,DS,SYNTH-ONC-001-0043,3,DISPOSITION EVENT,EVEROLIMUS,PROGRESSIVE DISEASE,2023-01-01,TREATMENT
SYNTH-ONC-001,DS,SYNTH-ONC-001-0043,4,DISPOSITION EVENT,STUDY,DEATH,2023-04-03,FOLLOW-UP
SYNTH-ONC-001,DS,SYNTH-ONC-001-0044,1,PROTOCOL MILESTONE,,RANDOMIZED,2021-10-25,SCREENING
SYNTH-ONC-001,DS,SYNTH-ONC-001-0044,2,DISPOSITION EVENT,FULVESTRANT,PROGRESSIVE DISEASE,2023-11-28,TREATMENT
SYNTH-ONC-001,DS,SYNTH-ONC-001-0044,3,DISPOSITION EVENT,EVEROLIMUS,PROGRESSIVE DISEASE,2023-11-28,TREATMENT
SYNTH-ONC-001,DS,SYNTH-ONC-001-0044,4,DISPOSITION EVENT,STUDY,DEATH,2024-02-11,FOLLOW-UP
SYNTH-ONC-001,DS,SYNTH-ONC-001-0045,1,PROTOCOL MILESTONE,,RANDOMIZED,2022-09-03,SCREENING
SYNTH-ONC-001,DS,SYNTH-ONC-001-0045,2,DISPOSITION EVENT,FULVESTRANT,PROGRESSIVE DISEASE,2023-07-19,TREATMENT
SYNTH-ONC-001,DS,SYNTH-ONC-001-0045,3,DISPOSITION EVENT,PLACEBO,PROGRESSIVE DISEASE,2023-07-19,TREATMENT
SYNTH-ONC-001,DS,SYNTH-ONC-001-0045,4,DISPOSITION EVENT,STUDY,DEATH,2023-11-01,FOLLOW-UP
SYNTH-ONC-001,DS,SYNTH-ONC-001-0046,1,PROTOCOL MILESTONE,,RANDOMIZED,2021-09-20,SCREENING
SYNTH-ONC-001,DS,SYNTH-ONC-001-0046,2,DISPOSITION EVENT,FULVESTRANT,PROGRESSIVE DISEASE,2022-08-06,TREATMENT
SYNTH-ONC-001,DS,SYNTH-ONC-001-0046,3,DISPOSITION EVENT,PLACEBO,PROGRESSIVE DISEASE,2022-08-06,TREATMENT
SYNTH-ONC-001,DS,SYNTH-ONC-001-0047,1,PROTOCOL MILESTONE,,RANDOMIZED,2021-05-24,SCREENING
SYNTH-ONC-001,DS,SYNTH-ONC-001-0047,2,DISPOSITION EVENT,FULVESTRANT,WITHDRAWAL BY SUBJECT,2022-11-17,TREATMENT
SYNTH-ONC-001,DS,SYNTH-ONC-001-0047,3,DISPOSITION EVENT,EVEROLIMUS,WITHDRAWAL BY SUBJECT,2022-11-17,TREATMENT
SYNTH-ONC-001,DS,SYNTH-ONC-001-0048,1,PROTOCOL MILESTONE,,RANDOMIZED,2021-12-12,SCREENING
SYNTH-ONC-001,DS,SYNTH-ONC-001-0048,2,DISPOSITION EVENT,FULVESTRANT,PROGRESSIVE DISEASE,2022-04-28,TREATMENT
SYNTH-ONC-001,DS,SYNTH-ONC-001-0048,3,DISPOSITION EVENT,EVEROLIMUS,PROGRESSIVE DISEASE,2022-04-28,TREATMENT
SYNTH-ONC-001,DS,SYNTH-ONC-001-0048,4,DISPOSITION EVENT,STUDY,DEATH,2022-10-28,FOLLOW-UP
SYNTH-ONC-001,DS,SYNTH-ONC-001-0049,1,PROTOCOL MILESTONE,,RANDOMIZED,2022-09-16,SCREENING
SYNTH-ONC-001,DS,SYNTH-ONC-001-0049,2,DISPOSITION EVENT,FULVESTRANT,PROGRESSIVE DISEASE,2023-06-02,TREATMENT
SYNTH-ONC-001,DS,SYNTH-ONC-001-0049,3,DISPOSITION EVENT,PLACEBO,PROGRESSIVE DISEASE,2023-06-02,TREATMENT
SYNTH-ONC-001,DS,SYNTH-ONC-001-0049,4,DISPOSITION EVENT,STUDY,DEATH,2023-11-10,FOLLOW-UP
SYNTH-ONC-001,DS,SYNTH-ONC-001-0050,1,PROTOCOL MILESTONE,,RANDOMIZED,2022-07-26,SCREENING
SYNTH-ONC-001,DS,SYNTH-ONC-001-0050,2,DISPOSITION EVENT,FULVESTRANT,PROGRESSIVE DISEASE,2024-07-26,TREATMENT
SYNTH-ONC-001,DS,SYNTH-ONC-001-0050,3,DISPOSITION EVENT,EVEROLIMUS,PROGRESSIVE DISEASE,2024-07-26,TREATMENT
SYNTH-ONC-001,DS,SYNTH-ONC-001-0050,4,DISPOSITION EVENT,STUDY,DEATH,2024-09-11,FOLLOW-UP
SYNTH-ONC-001,DS,SYNTH-ONC-001-0051,1,PROTOCOL MILESTONE,,RANDOMIZED,2021-01-02,SCREENING
SYNTH-ONC-001,DS,SYNTH-ONC-001-0051,2,DISPOSITION EVENT,FULVESTRANT,PROGRESSIVE DISEASE,2022-04-17,TREATMENT
SYNTH-ONC-001,DS,SYNTH-ONC-001-0051,3,DISPOSITION EVENT,PLACEBO,PROGRESSIVE DISEASE,2022-04-17,TREATMENT
SYNTH-ONC-001,DS,SYNTH-ONC-001-0051,4,DISPOSITION EVENT,STUDY,DEATH,2022-05-25,FOLLOW-UP
SYNTH-ONC-001,DS,SYNTH-ONC-001-0052,1,PROTOCOL MILESTONE,,RANDOMIZED,2021-10-31,SCREENING
SYNTH-ONC-001,DS,SYNTH-ONC-001-0052,2,DISPOSITION EVENT,FULVESTRANT,PROGRESSIVE DISEASE,2022-10-05,TREATMENT
SYNTH-ONC-001,DS,SYNTH-ONC-001-0052,3,DISPOSITION EVENT,PLACEBO,PROGRESSIVE DISEASE,2022-10-05,TREATMENT
SYNTH-ONC-001,DS,SYNTH-ONC-001-0052,4,DISPOSITION EVENT,STUDY,DEATH,2022-12-29,FOLLOW-UP
SYNTH-ONC-001,DS,SYNTH-ONC-001-0053,1,PROTOCOL MILESTONE,,RANDOMIZED,2021-09-11,SCREENING
SYNTH-ONC-001,DS,SYNTH-ONC-001-0053,2,DISPOSITION EVENT,FULVESTRANT,PROGRESSIVE DISEASE,2023-05-25,TREATMENT
SYNTH-ONC-001,DS,SYNTH-ONC-001-0053,3,DISPOSITION EVENT,EVEROLIMUS,PROGRESSIVE DISEASE,2023-05-25,TREATMENT
SYNTH-ONC-001,DS,SYNTH-ONC-001-0053,4,DISPOSITION EVENT,STUDY,DEATH,2026-01-20,FOLLOW-UP
SYNTH-ONC-001,DS,SYNTH-ONC-001-0054,1,PROTOCOL MILESTONE,,RANDOMIZED,2022-10-14,SCREENING
SYNTH-ONC-001,DS,SYNTH-ONC-001-0054,2,DISPOSITION EVENT,FULVESTRANT,PROGRESSIVE DISEASE,2023-01-09,TREATMENT
SYNTH-ONC-001,DS,SYNTH-ONC-001-0054,3,DISPOSITION EVENT,PLACEBO,PROGRESSIVE DISEASE,2023-01-09,TREATMENT
SYNTH-ONC-001,DS,SYNTH-ONC-001-0054,4,DISPOSITION EVENT,STUDY,DEATH,2023-03-23,FOLLOW-UP
SYNTH-ONC-001,DS,SYNTH-ONC-001-0055,1,PROTOCOL MILESTONE,,RANDOMIZED,2022-03-29,SCREENING
SYNTH-ONC-001,DS,SYNTH-ONC-001-0055,2,DISPOSITION EVENT,FULVESTRANT,PROGRESSIVE DISEASE,2024-03-13,TREATMENT
SYNTH-ONC-001,DS,SYNTH-ONC-001-0055,3,DISPOSITION EVENT,PLACEBO,PROGRESSIVE DISEASE,2024-03-13,TREATMENT
SYNTH-ONC-001,DS,SYNTH-ONC-001-0055,4,DISPOSITION EVENT,STUDY,DEATH,2024-03-29,FOLLOW-UP
SYNTH-ONC-001,DS,SYNTH-ONC-001-0056,1,PROTOCOL MILESTONE,,RANDOMIZED,2021-02-06,SCREENING
SYNTH-ONC-001,DS,SYNTH-ONC-001-0056,2,DISPOSITION EVENT,FULVESTRANT,PROGRESSIVE DISEASE,2021-11-24,TREATMENT
SYNTH-ONC-001,DS,SYNTH-ONC-001-0056,3,DISPOSITION EVENT,EVEROLIMUS,PROGRESSIVE DISEASE,2021-11-24,TREATMENT
SYNTH-ONC-001,DS,SYNTH-ONC-001-0057,1,PROTOCOL MILESTONE,,RANDOMIZED,2021-06-09,SCREENING
SYNTH-ONC-001,DS,SYNTH-ONC-001-0057,2,DISPOSITION EVENT,FULVESTRANT,PROGRESSIVE DISEASE,2021-09-01,TREATMENT
SYNTH-ONC-001,DS,SYNTH-ONC-001-0057,3,DISPOSITION EVENT,PLACEBO,PROGRESSIVE DISEASE,2021-09-01,TREATMENT
SYNTH-ONC-001,DS,SYNTH-ONC-001-0057,4,DISPOSITION EVENT,STUDY,DEATH,2022-05-12,FOLLOW-UP
SYNTH-ONC-001,DS,SYNTH-ONC-001-0058,1,PROTOCOL MILESTONE,,RANDOMIZED,2021-01-09,SCREENING
SYNTH-ONC-001,DS,SYNTH-ONC-001-0058,2,DISPOSITION EVENT,FULVESTRANT,PROGRESSIVE DISEASE,2022-04-27,TREATMENT
SYNTH-ONC-001,DS,SYNTH-ONC-001-0058,3,DISPOSITION EVENT,EVEROLIMUS,PROGRESSIVE DISEASE,2022-04-27,TREATMENT
SYNTH-ONC-001,DS,SYNTH-ONC-001-0058,4,DISPOSITION EVENT,STUDY,DEATH,2022-07-30,FOLLOW-UP
SYNTH-ONC-001,DS,SYNTH-ONC-001-0059,1,PROTOCOL MILESTONE,,RANDOMIZED,2021-08-21,SCREENING
SYNTH-ONC-001,DS,SYNTH-ONC-001-0059,2,DISPOSITION EVENT,FULVESTRANT,PROGRESSIVE DISEASE,2021-11-13,TREATMENT
SYNTH-ONC-001,DS,SYNTH-ONC-001-0059,3,DISPOSITION EVENT,PLACEBO,PROGRESSIVE DISEASE,2021-11-13,TREATMENT
SYNTH-ONC-001,DS,SYNTH-ONC-001-0059,4,DISPOSITION EVENT,STUDY,DEATH,2022-09-19,FOLLOW-UP
SYNTH-ONC-001,DS,SYNTH-ONC-001-0060,1,PROTOCOL MILESTONE,,RANDOMIZED,2021-04-09,SCREENING
SYNTH-ONC-001,DS,SYNTH-ONC-001-0060,2,DISPOSITION EVENT,FULVESTRANT,PROGRESSIVE DISEASE,2021-07-02,TREATMENT
SYNTH-ONC-001,DS,SYNTH-ONC-001-0060,3,DISPOSITION EVENT,EVEROLIMUS,PROGRESSIVE DISEASE,2021-07-02,TREATMENT
SYNTH-ONC-001,DS,SYNTH-ONC-001-0060,4,DISPOSITION EVENT,STUDY,DEATH,2021-09-04,FOLLOW-UP
SYNTH-ONC-001,DS,SYNTH-ONC-001-0061,1,PROTOCOL MILESTONE,,RANDOMIZED,2022-10-21,SCREENING
SYNTH-ONC-001,DS,SYNTH-ONC-001-0061,2,DISPOSITION EVENT,FULVESTRANT,PROGRESSIVE DISEASE,2023-06-02,TREATMENT
SYNTH-ONC-001,DS,SYNTH-ONC-001-0061,3,DISPOSITION EVENT,PLACEBO,PROGRESSIVE DISEASE,2023-06-02,TREATMENT
SYNTH-ONC-001,DS,SYNTH-ONC-001-0062,1,PROTOCOL MILESTONE,,RANDOMIZED,2021-07-27,SCREENING
SYNTH-ONC-001,DS,SYNTH-ONC-001-0062,2,DISPOSITION EVENT,FULVESTRANT,PROGRESSIVE DISEASE,2023-03-09,TREATMENT
SYNTH-ONC-001,DS,SYNTH-ONC-001-0062,3,DISPOSITION EVENT,EVEROLIMUS,PROGRESSIVE DISEASE,2023-03-09,TREATMENT
SYNTH-ONC-001,DS,SYNTH-ONC-001-0062,4,DISPOSITION EVENT,STUDY,DEATH,2023-06-03,FOLLOW-UP
SYNTH-ONC-001,DS,SYNTH-ONC-001-0063,1,PROTOCOL MILESTONE,,RANDOMIZED,2021-05-11,SCREENING
SYNTH-ONC-001,DS,SYNTH-ONC-001-0063,2,DISPOSITION EVENT,FULVESTRANT,PROGRESSIVE DISEASE,2021-11-08,TREATMENT
SYNTH-ONC-001,DS,SYNTH-ONC-001-0063,3,DISPOSITION EVENT,EVEROLIMUS,PROGRESSIVE DISEASE,2021-11-08,TREATMENT
SYNTH-ONC-001,DS,SYNTH-ONC-001-0063,4,DISPOSITION EVENT,STUDY,DEATH,2023-08-28,FOLLOW-UP
SYNTH-ONC-001,DS,SYNTH-ONC-001-0064,1,PROTOCOL MILESTONE,,RANDOMIZED,2022-02-08,SCREENING
SYNTH-ONC-001,DS,SYNTH-ONC-001-0064,2,DISPOSITION EVENT,FULVESTRANT,PROGRESSIVE DISEASE,2022-05-03,TREATMENT
SYNTH-ONC-001,DS,SYNTH-ONC-001-0064,3,DISPOSITION EVENT,EVEROLIMUS,PROGRESSIVE DISEASE,2022-05-03,TREATMENT
SYNTH-ONC-001,DS,SYNTH-ONC-001-0064,4,DISPOSITION EVENT,STUDY,DEATH,2022-12-29,FOLLOW-UP
SYNTH-ONC-001,DS,SYNTH-ONC-001-0065,1,PROTOCOL MILESTONE,,RANDOMIZED,2021-06-01,SCREENING
SYNTH-ONC-001,DS,SYNTH-ONC-001-0065,2,DISPOSITION EVENT,FULVESTRANT,PROGRESSIVE DISEASE,2021-09-17,TREATMENT
SYNTH-ONC-001,DS,SYNTH-ONC-001-0065,3,DISPOSITION EVENT,EVEROLIMUS,PROGRESSIVE DISEASE,2021-09-17,TREATMENT
SYNTH-ONC-001,DS,SYNTH-ONC-001-0066,1,PROTOCOL MILESTONE,,RANDOMIZED,2021-02-23,SCREENING
SYNTH-ONC-001,DS,SYNTH-ONC-001-0066,2,DISPOSITION EVENT,FULVESTRANT,PROGRESSIVE DISEASE,2021-09-06,TREATMENT
SYNTH-ONC-001,DS,SYNTH-ONC-001-0066,3,DISPOSITION EVENT,PLACEBO,PROGRESSIVE DISEASE,2021-09-06,TREATMENT
SYNTH-ONC-001,DS,SYNTH-ONC-001-0066,4,DISPOSITION EVENT,STUDY,DEATH,2022-03-25,FOLLOW-UP
SYNTH-ONC-001,DS,SYNTH-ONC-001-0067,1,PROTOCOL MILESTONE,,RANDOMIZED,2021-04-30,SCREENING
SYNTH-ONC-001,DS,SYNTH-ONC-001-0067,2,DISPOSITION EVENT,FULVESTRANT,PROGRESSIVE DISEASE,2023-01-27,TREATMENT
SYNTH-ONC-001,DS,SYNTH-ONC-001-0067,3,DISPOSITION EVENT,EVEROLIMUS,PROGRESSIVE DISEASE,2023-01-27,TREATMENT
SYNTH-ONC-001,DS,SYNTH-ONC-001-0067,4,DISPOSITION EVENT,STUDY,DEATH,2023-03-21,FOLLOW-UP
SYNTH-ONC-001,DS,SYNTH-ONC-001-0068,1,PROTOCOL MILESTONE,,RANDOMIZED,2022-11-04,SCREENING
SYNTH-ONC-001,DS,SYNTH-ONC-001-0068,2,DISPOSITION EVENT,FULVESTRANT,PROGRESSIVE DISEASE,2023-02-18,TREATMENT
SYNTH-ONC-001,DS,SYNTH-ONC-001-0068,3,DISPOSITION EVENT,PLACEBO,PROGRESSIVE DISEASE,2023-02-18,TREATMENT
SYNTH-ONC-001,DS,SYNTH-ONC-001-0069,1,PROTOCOL MILESTONE,,RANDOMIZED,2022-09-20,SCREENING
SYNTH-ONC-001,DS,SYNTH-ONC-001-0069,2,DISPOSITION EVENT,FULVESTRANT,COMPLETED,2023-02-06,TREATMENT
SYNTH-ONC-001,DS,SYNTH-ONC-001-0069,3,DISPOSITION EVENT,EVEROLIMUS,COMPLETED,2023-02-06,TREATMENT
SYNTH-ONC-001,DS,SYNTH-ONC-001-0070,1,PROTOCOL MILESTONE,,RANDOMIZED,2022-08-10,SCREENING
SYNTH-ONC-001,DS,SYNTH-ONC-001-0070,2,DISPOSITION EVENT,FULVESTRANT,PROGRESSIVE DISEASE,2023-05-24,TREATMENT
SYNTH-ONC-001,DS,SYNTH-ONC-001-0070,3,DISPOSITION EVENT,PLACEBO,PROGRESSIVE DISEASE,2023-05-24,TREATMENT
SYNTH-ONC-001,DS,SYNTH-ONC-001-0071,1,PROTOCOL MILESTONE,,RANDOMIZED,2022-09-17,SCREENING
SYNTH-ONC-001,DS,SYNTH-ONC-001-0071,2,DISPOSITION EVENT,FULVESTRANT,PROGRESSIVE DISEASE,2023-04-06,TREATMENT
SYNTH-ONC-001,DS,SYNTH-ONC-001-0071,3,DISPOSITION EVENT,EVEROLIMUS,PROGRESSIVE DISEASE,2023-04-06,TREATMENT
SYNTH-ONC-001,DS,SYNTH-ONC-001-0071,4,DISPOSITION EVENT,STUDY,DEATH,2023-08-11,FOLLOW-UP
SYNTH-ONC-001,DS,SYNTH-ONC-001-0072,1,PROTOCOL MILESTONE,,RANDOMIZED,2022-02-24,SCREENING
SYNTH-ONC-001,DS,SYNTH-ONC-001-0072,2,DISPOSITION EVENT,FULVESTRANT,PROGRESSIVE DISEASE,2022-08-26,TREATMENT
SYNTH-ONC-001,DS,SYNTH-ONC-001-0072,3,DISPOSITION EVENT,PLACEBO,PROGRESSIVE DISEASE,2022-08-26,TREATMENT
SYNTH-ONC-001,DS,SYNTH-ONC-001-0072,4,DISPOSITION EVENT,STUDY,DEATH,2022-09-06,FOLLOW-UP
SYNTH-ONC-001,DS,SYNTH-ONC-001-0073,1,PROTOCOL MILESTONE,,RANDOMIZED,2022-02-26,SCREENING
SYNTH-ONC-001,DS,SYNTH-ONC-001-0073,2,DISPOSITION EVENT,FULVESTRANT,PROGRESSIVE DISEASE,2023-10-19,TREATMENT
SYNTH-ONC-001,DS,SYNTH-ONC-001-0073,3,DISPOSITION EVENT,PLACEBO,PROGRESSIVE DISEASE,2023-10-19,TREATMENT
SYNTH-ONC-001,DS,SYNTH-ONC-001-0073,4,DISPOSITION EVENT,STUDY,DEATH,2023-12-04,FOLLOW-UP
SYNTH-ONC-001,DS,SYNTH-ONC-001-0074,1,PROTOCOL MILESTONE,,RANDOMIZED,2021-04-14,SCREENING
SYNTH-ONC-001,DS,SYNTH-ONC-001-0074,2,DISPOSITION EVENT,FULVESTRANT,PROGRESSIVE DISEASE,2021-08-02,TREATMENT
SYNTH-ONC-001,DS,SYNTH-ONC-001-0074,3,DISPOSITION EVENT,EVEROLIMUS,PROGRESSIVE DISEASE,2021-08-02,TREATMENT
SYNTH-ONC-001,DS,SYNTH-ONC-001-0074,4,DISPOSITION EVENT,STUDY,DEATH,2021-10-27,FOLLOW-UP
SYNTH-ONC-001,DS,SYNTH-ONC-001-0075,1,PROTOCOL MILESTONE,,RANDOMIZED,2021-09-11,SCREENING
SYNTH-ONC-001,DS,SYNTH-ONC-001-0075,2,DISPOSITION EVENT,FULVESTRANT,PROGRESSIVE DISEASE,2022-09-05,TREATMENT
SYNTH-ONC-001,DS,SYNTH-ONC-001-0075,3,DISPOSITION EVENT,PLACEBO,PROGRESSIVE DISEASE,2022-09-05,TREATMENT
SYNTH-ONC-001,DS,SYNTH-ONC-001-0075,4,DISPOSITION EVENT,STUDY,DEATH,2022-10-24,FOLLOW-UP
SYNTH-ONC-001,DS,SYNTH-ONC-001-0076,1,PROTOCOL MILESTONE,,RANDOMIZED,2021-08-15,SCREENING
SYNTH-ONC-001,DS,SYNTH-ONC-001-0076,2,DISPOSITION EVENT,FULVESTRANT,COMPLETED,2022-04-23,TREATMENT
SYNTH-ONC-001,DS,SYNTH-ONC-001-0076,3,DISPOSITION EVENT,PLACEBO,COMPLETED,2022-04-23,TREATMENT
SYNTH-ONC-001,DS,SYNTH-ONC-001-0077,1,PROTOCOL MILESTONE,,RANDOMIZED,2021-04-22,SCREENING
SYNTH-ONC-001,DS,SYNTH-ONC-001-0077,2,DISPOSITION EVENT,FULVESTRANT,PROGRESSIVE DISEASE,2021-12-03,TREATMENT
SYNTH-ONC-001,DS,SYNTH-ONC-001-0077,3,DISPOSITION EVENT,EVEROLIMUS,PROGRESSIVE DISEASE,2021-12-03,TREATMENT
SYNTH-ONC-001,DS,SYNTH-ONC-001-0077,4,DISPOSITION EVENT,STUDY,DEATH,2022-10-13,FOLLOW-UP
SYNTH-ONC-001,DS,SYNTH-ONC-001-0078,1,PROTOCOL MILESTONE,,RANDOMIZED,2022-05-25,SCREENING
SYNTH-ONC-001,DS,SYNTH-ONC-001-0078,2,DISPOSITION EVENT,FULVESTRANT,PROGRESSIVE DISEASE,2022-09-05,TREATMENT
SYNTH-ONC-001,DS,SYNTH-ONC-001-0078,3,DISPOSITION EVENT,PLACEBO,PROGRESSIVE DISEASE,2022-09-05,TREATMENT
SYNTH-ONC-001,DS,SYNTH-ONC-001-0078,4,DISPOSITION EVENT,STUDY,DEATH,2024-01-31,FOLLOW-UP
SYNTH-ONC-001,DS,SYNTH-ONC-001-0079,1,PROTOCOL MILESTONE,,RANDOMIZED,2022-04-18,SCREENING
SYNTH-ONC-001,DS,SYNTH-ONC-001-0079,2,DISPOSITION EVENT,FULVESTRANT,PROGRESSIVE DISEASE,2022-08-16,TREATMENT
SYNTH-ONC-001,DS,SYNTH-ONC-001-0079,3,DISPOSITION EVENT,PLACEBO,PROGRESSIVE DISEASE,2022-08-16,TREATMENT
SYNTH-ONC-001,DS,SYNTH-ONC-001-0080,1,PROTOCOL MILESTONE,,RANDOMIZED,2021-04-09,SCREENING
SYNTH-ONC-001,DS,SYNTH-ONC-001-0080,2,DISPOSITION EVENT,FULVESTRANT,PROGRESSIVE DISEASE,2021-07-02,TREATMENT
SYNTH-ONC-001,DS,SYNTH-ONC-001-0080,3,DISPOSITION EVENT,PLACEBO,PROGRESSIVE DISEASE,2021-07-02,TREATMENT
SYNTH-ONC-001,DS,SYNTH-ONC-001-0080,4,DISPOSITION EVENT,STUDY,DEATH,2022-04-05,FOLLOW-UP
SYNTH-ONC-001,DS,SYNTH-ONC-001-0081,1,PROTOCOL MILESTONE,,RANDOMIZED,2021-06-02,SCREENING
SYNTH-ONC-001,DS,SYNTH-ONC-001-0081,2,DISPOSITION EVENT,FULVESTRANT,PROGRESSIVE DISEASE,2021-08-25,TREATMENT
SYNTH-ONC-001,DS,SYNTH-ONC-001-0081,3,DISPOSITION EVENT,EVEROLIMUS,PROGRESSIVE DISEASE,2021-08-25,TREATMENT
SYNTH-ONC-001,DS,SYNTH-ONC-001-0081,4,DISPOSITION EVENT,STUDY,DEATH,2022-01-22,FOLLOW-UP
SYNTH-ONC-001,DS,SYNTH-ONC-001-0082,1,PROTOCOL MILESTONE,,RANDOMIZED,2021-12-04,SCREENING
SYNTH-ONC-001,DS,SYNTH-ONC-001-0082,2,DISPOSITION EVENT,FULVESTRANT,PROGRESSIVE DISEASE,2025-01-22,TREATMENT
SYNTH-ONC-001,DS,SYNTH-ONC-001-0082,3,DISPOSITION EVENT,EVEROLIMUS,PROGRESSIVE DISEASE,2025-01-22,TREATMENT
SYNTH-ONC-001,DS,SYNTH-ONC-001-0082,4,DISPOSITION EVENT,STUDY,DEATH,2025-05-27,FOLLOW-UP
SYNTH-ONC-001,DS,SYNTH-ONC-001-0083,1,PROTOCOL MILESTONE,,RANDOMIZED,2022-12-07,SCREENING
SYNTH-ONC-001,DS,SYNTH-ONC-001-0083,2,DISPOSITION EVENT,FULVESTRANT,PROGRESSIVE DISEASE,2023-08-21,TREATMENT
SYNTH-ONC-001,DS,SYNTH-ONC-001-0083,3,DISPOSITION EVENT,EVEROLIMUS,PROGRESSIVE DISEASE,2023-08-21,TREATMENT
SYNTH-ONC-001,DS,SYNTH-ONC-001-0083,4,DISPOSITION EVENT,STUDY,DEATH,2024-01-07,FOLLOW-UP
SYNTH-ONC-001,DS,SYNTH-ONC-001-0084,1,PROTOCOL MILESTONE,,RANDOMIZED,2021-06-12,SCREENING
SYNTH-ONC-001,DS,SYNTH-ONC-001-0084,2,DISPOSITION EVENT,FULVESTRANT,COMPLETED,2022-05-27,TREATMENT
SYNTH-ONC-001,DS,SYNTH-ONC-001-0084,3,DISPOSITION EVENT,PLACEBO,COMPLETED,2022-05-27,TREATMENT
SYNTH-ONC-001,DS,SYNTH-ONC-001-0085,1,PROTOCOL MILESTONE,,RANDOMIZED,2022-12-21,SCREENING
SYNTH-ONC-001,DS,SYNTH-ONC-001-0085,2,DISPOSITION EVENT,FULVESTRANT,PROGRESSIVE DISEASE,2023-09-24,TREATMENT
SYNTH-ONC-001,DS,SYNTH-ONC-001-0085,3,DISPOSITION EVENT,PLACEBO,PROGRESSIVE DISEASE,2023-09-24,TREATMENT
SYNTH-ONC-001,DS,SYNTH-ONC-001-0085,4,DISPOSITION EVENT,STUDY,DEATH,2024-04-12,FOLLOW-UP
SYNTH-ONC-001,DS,SYNTH-ONC-001-0086,1,PROTOCOL MILESTONE,,RANDOMIZED,2022-11-12,SCREENING
SYNTH-ONC-001,DS,SYNTH-ONC-001-0086,2,DISPOSITION EVENT,FULVESTRANT,PROGRESSIVE DISEASE,2026-08-22,TREATMENT
SYNTH-ONC-001,DS,SYNTH-ONC-001-0086,3,DISPOSITION EVENT,EVEROLIMUS,PROGRESSIVE DISEASE,2026-08-22,TREATMENT
SYNTH-ONC-001,DS,SYNTH-ONC-001-0086,4,DISPOSITION EVENT,STUDY,DEATH,2026-12-31,FOLLOW-UP
SYNTH-ONC-001,DS,SYNTH-ONC-001-0087,1,PROTOCOL MILESTONE,,RANDOMIZED,2021-06-10,SCREENING
SYNTH-ONC-001,DS,SYNTH-ONC-001-0087,2,DISPOSITION EVENT,FULVESTRANT,PROGRESSIVE DISEASE,2022-01-26,TREATMENT
SYNTH-ONC-001,DS,SYNTH-ONC-001-0087,3,DISPOSITION EVENT,PLACEBO,PROGRESSIVE DISEASE,2022-01-26,TREATMENT
SYNTH-ONC-001,DS,SYNTH-ONC-001-0087,4,DISPOSITION EVENT,STUDY,DEATH,2022-03-09,FOLLOW-UP
SYNTH-ONC-001,DS,SYNTH-ONC-001-0088,1,PROTOCOL MILESTONE,,RANDOMIZED,2022-08-03,SCREENING
SYNTH-ONC-001,DS,SYNTH-ONC-001-0088,2,DISPOSITION EVENT,FULVESTRANT,PROGRESSIVE DISEASE,2022-10-26,TREATMENT
SYNTH-ONC-001,DS,SYNTH-ONC-001-0088,3,DISPOSITION EVENT,EVEROLIMUS,PROGRESSIVE DISEASE,2022-10-26,TREATMENT
SYNTH-ONC-001,DS,SYNTH-ONC-001-0089,1,PROTOCOL MILESTONE,,RANDOMIZED,2022-02-02,SCREENING
SYNTH-ONC-001,DS,SYNTH-ONC-001-0089,2,DISPOSITION EVENT,FULVESTRANT,COMPLETED,2023-03-19,TREATMENT
SYNTH-ONC-001,DS,SYNTH-ONC-001-0089,3,DISPOSITION EVENT,PLACEBO,COMPLETED,2023-03-19,TREATMENT
SYNTH-ONC-001,DS,SYNTH-ONC-001-0090,1,PROTOCOL MILESTONE,,RANDOMIZED,2021-10-04,SCREENING
SYNTH-ONC-001,DS,SYNTH-ONC-001-0090,2,DISPOSITION EVENT,FULVESTRANT,PROGRESSIVE DISEASE,2022-02-12,TREATMENT
SYNTH-ONC-001,DS,SYNTH-ONC-001-0090,3,DISPOSITION EVENT,EVEROLIMUS,PROGRESSIVE DISEASE,2022-02-12,TREATMENT
SYNTH-ONC-001,DS,SYNTH-ONC-001-0090,4,DISPOSITION EVENT,STUDY,DEATH,2022-02-16,FOLLOW-UP
SYNTH-ONC-001,DS,SYNTH-ONC-001-0091,1,PROTOCOL MILESTONE,,RANDOMIZED,2022-05-19,SCREENING
SYNTH-ONC-001,DS,SYNTH-ONC-001-0091,2,DISPOSITION EVENT,FULVESTRANT,PROGRESSIVE DISEASE,2022-08-11,TREATMENT
SYNTH-ONC-001,DS,SYNTH-ONC-001-0091,3,DISPOSITION EVENT,EVEROLIMUS,PROGRESSIVE DISEASE,2022-08-11,TREATMENT
SYNTH-ONC-001,DS,SYNTH-ONC-001-0091,4,DISPOSITION EVENT,STUDY,DEATH,2022-09-25,FOLLOW-UP
SYNTH-ONC-001,DS,SYNTH-ONC-001-0092,1,PROTOCOL MILESTONE,,RANDOMIZED,2022-01-27,SCREENING
SYNTH-ONC-001,DS,SYNTH-ONC-001-0092,2,DISPOSITION EVENT,FULVESTRANT,PROGRESSIVE DISEASE,2022-12-02,TREATMENT
SYNTH-ONC-001,DS,SYNTH-ONC-001-0092,3,DISPOSITION EVENT,PLACEBO,PROGRESSIVE DISEASE,2022-12-02,TREATMENT
SYNTH-ONC-001,DS,SYNTH-ONC-001-0093,1,PROTOCOL MILESTONE,,RANDOMIZED,2021-05-15,SCREENING
SYNTH-ONC-001,DS,SYNTH-ONC-001-0093,2,DISPOSITION EVENT,FULVESTRANT,PROGRESSIVE DISEASE,2021-09-10,TREATMENT
SYNTH-ONC-001,DS,SYNTH-ONC-001-0093,3,DISPOSITION EVENT,PLACEBO,PROGRESSIVE DISEASE,2021-09-10,TREATMENT
SYNTH-ONC-001,DS,SYNTH-ONC-001-0093,4,DISPOSITION EVENT,STUDY,DEATH,2023-01-08,FOLLOW-UP
SYNTH-ONC-001,DS,SYNTH-ONC-001-0094,1,PROTOCOL MILESTONE,,RANDOMIZED,2021-07-14,SCREENING
SYNTH-ONC-001,DS,SYNTH-ONC-001-0094,2,DISPOSITION EVENT,FULVESTRANT,PROGRESSIVE DISEASE,2022-07-16,TREATMENT
SYNTH-ONC-001,DS,SYNTH-ONC-001-0094,3,DISPOSITION EVENT,EVEROLIMUS,PROGRESSIVE DISEASE,2022-07-16,TREATMENT
SYNTH-ONC-001,DS,SYNTH-ONC-001-0094,4,DISPOSITION EVENT,STUDY,DEATH,2022-11-10,FOLLOW-UP
SYNTH-ONC-001,DS,SYNTH-ONC-001-0095,1,PROTOCOL MILESTONE,,RANDOMIZED,2022-02-05,SCREENING
SYNTH-ONC-001,DS,SYNTH-ONC-001-0095,2,DISPOSITION EVENT,FULVESTRANT,PROGRESSIVE DISEASE,2022-09-22,TREATMENT
SYNTH-ONC-001,DS,SYNTH-ONC-001-0095,3,DISPOSITION EVENT,EVEROLIMUS,PROGRESSIVE DISEASE,2022-09-22,TREATMENT
SYNTH-ONC-001,DS,SYNTH-ONC-001-0095,4,DISPOSITION EVENT,STUDY,DEATH,2023-03-08,FOLLOW-UP
SYNTH-ONC-001,DS,SYNTH-ONC-001-0096,1,PROTOCOL MILESTONE,,RANDOMIZED,2022-10-02,SCREENING
SYNTH-ONC-001,DS,SYNTH-ONC-001-0096,2,DISPOSITION EVENT,FULVESTRANT,PROGRESSIVE DISEASE,2023-01-23,TREATMENT
SYNTH-ONC-001,DS,SYNTH-ONC-001-0096,3,DISPOSITION EVENT,PLACEBO,PROGRESSIVE DISEASE,2023-01-23,TREATMENT
SYNTH-ONC-001,DS,SYNTH-ONC-001-0096,4,DISPOSITION EVENT,STUDY,DEATH,2024-03-09,FOLLOW-UP
SYNTH-ONC-001,DS,SYNTH-ONC-001-0097,1,PROTOCOL MILESTONE,,RANDOMIZED,2021-02-02,SCREENING
SYNTH-ONC-001,DS,SYNTH-ONC-001-0097,2,DISPOSITION EVENT,FULVESTRANT,PROGRESSIVE DISEASE,2021-12-16,TREATMENT
SYNTH-ONC-001,DS,SYNTH-ONC-001-0097,3,DISPOSITION EVENT,PLACEBO,PROGRESSIVE DISEASE,2021-12-16,TREATMENT
SYNTH-ONC-001,DS,SYNTH-ONC-001-0098,1,PROTOCOL MILESTONE,,RANDOMIZED,2022-11-19,SCREENING
SYNTH-ONC-001,DS,SYNTH-ONC-001-0098,2,DISPOSITION EVENT,FULVESTRANT,PROGRESSIVE DISEASE,2024-03-01,TREATMENT
SYNTH-ONC-001,DS,SYNTH-ONC-001-0098,3,DISPOSITION EVENT,EVEROLIMUS,PROGRESSIVE DISEASE,2024-03-01,TREATMENT
SYNTH-ONC-001,DS,SYNTH-ONC-001-0098,4,DISPOSITION EVENT,STUDY,DEATH,2025-09-01,FOLLOW-UP
SYNTH-ONC-001,DS,SYNTH-ONC-001-0099,1,PROTOCOL MILESTONE,,RANDOMIZED,2022-04-05,SCREENING
SYNTH-ONC-001,DS,SYNTH-ONC-001-0099,2,DISPOSITION EVENT,FULVESTRANT,PROGRESSIVE DISEASE,2024-04-06,TREATMENT
SYNTH-ONC-001,DS,SYNTH-ONC-001-0099,3,DISPOSITION EVENT,EVEROLIMUS,PROGRESSIVE DISEASE,2024-04-06,TREATMENT
SYNTH-ONC-001,DS,SYNTH-ONC-001-0100,1,PROTOCOL MILESTONE,,RANDOMIZED,2022-04-15,SCREENING
SYNTH-ONC-001,DS,SYNTH-ONC-001-0100,2,DISPOSITION EVENT,FULVESTRANT,PROGRESSIVE DISEASE,2024-10-05,TREATMENT
SYNTH-ONC-001,DS,SYNTH-ONC-001-0100,3,DISPOSITION EVENT,PLACEBO,PROGRESSIVE DISEASE,2024-10-05,TREATMENT
SYNTH-ONC-001,DS,SYNTH-ONC-001-0100,4,DISPOSITION EVENT,STUDY,DEATH,2024-10-28,FOLLOW-UP
SYNTH-ONC-001,DS,SYNTH-ONC-001-0101,1,PROTOCOL MILESTONE,,RANDOMIZED,2022-01-10,SCREENING
SYNTH-ONC-001,DS,SYNTH-ONC-001-0101,2,DISPOSITION EVENT,FULVESTRANT,PROGRESSIVE DISEASE,2022-06-28,TREATMENT
SYNTH-ONC-001,DS,SYNTH-ONC-001-0101,3,DISPOSITION EVENT,EVEROLIMUS,PROGRESSIVE DISEASE,2022-06-28,TREATMENT
SYNTH-ONC-001,DS,SYNTH-ONC-001-0101,4,DISPOSITION EVENT,STUDY,DEATH,2022-11-01,FOLLOW-UP
SYNTH-ONC-001,DS,SYNTH-ONC-001-0102,1,PROTOCOL MILESTONE,,RANDOMIZED,2021-01-22,SCREENING
SYNTH-ONC-001,DS,SYNTH-ONC-001-0102,2,DISPOSITION EVENT,FULVESTRANT,PROGRESSIVE DISEASE,2021-04-16,TREATMENT
SYNTH-ONC-001,DS,SYNTH-ONC-001-0102,3,DISPOSITION EVENT,EVEROLIMUS,PROGRESSIVE DISEASE,2021-04-16,TREATMENT
SYNTH-ONC-001,DS,SYNTH-ONC-001-0102,4,DISPOSITION EVENT,STUDY,DEATH,2021-05-01,FOLLOW-UP
SYNTH-ONC-001,DS,SYNTH-ONC-001-0103,1,PROTOCOL MILESTONE,,RANDOMIZED,2022-11-01,SCREENING
SYNTH-ONC-001,DS,SYNTH-ONC-001-0103,2,DISPOSITION EVENT,FULVESTRANT,PROGRESSIVE DISEASE,2023-01-24,TREATMENT
SYNTH-ONC-001,DS,SYNTH-ONC-001-0103,3,DISPOSITION EVENT,PLACEBO,PROGRESSIVE DISEASE,2023-01-24,TREATMENT
SYNTH-ONC-001,DS,SYNTH-ONC-001-0104,1,PROTOCOL MILESTONE,,RANDOMIZED,2021-02-07,SCREENING
SYNTH-ONC-001,DS,SYNTH-ONC-001-0104,2,DISPOSITION EVENT,FULVESTRANT,PROGRESSIVE DISEASE,2021-05-02,TREATMENT
SYNTH-ONC-001,DS,SYNTH-ONC-001-0104,3,DISPOSITION EVENT,PLACEBO,PROGRESSIVE DISEASE,2021-05-02,TREATMENT
SYNTH-ONC-001,DS,SYNTH-ONC-001-0104,4,DISPOSITION EVENT,STUDY,DEATH,2021-10-11,FOLLOW-UP
SYNTH-ONC-001,DS,SYNTH-ONC-001-0105,1,PROTOCOL MILESTONE,,RANDOMIZED,2021-08-18,SCREENING
SYNTH-ONC-001,DS,SYNTH-ONC-001-0105,2,DISPOSITION EVENT,FULVESTRANT,PROGRESSIVE DISEASE,2021-11-10,TREATMENT
SYNTH-ONC-001,DS,SYNTH-ONC-001-0105,3,DISPOSITION EVENT,PLACEBO,PROGRESSIVE DISEASE,2021-11-10,TREATMENT
SYNTH-ONC-001,DS,SYNTH-ONC-001-0106,1,PROTOCOL MILESTONE,,RANDOMIZED,2021-12-31,SCREENING
SYNTH-ONC-001,DS,SYNTH-ONC-001-0106,2,DISPOSITION EVENT,FULVESTRANT,PROGRESSIVE DISEASE,2022-03-25,TREATMENT
SYNTH-ONC-001,DS,SYNTH-ONC-001-0106,3,DISPOSITION EVENT,PLACEBO,PROGRESSIVE DISEASE,2022-03-25,TREATMENT
SYNTH-ONC-001,DS,SYNTH-ONC-001-0107,1,PROTOCOL MILESTONE,,RANDOMIZED,2022-07-17,SCREENING
SYNTH-ONC-001,DS,SYNTH-ONC-001-0107,2,DISPOSITION EVENT,FULVESTRANT,PROGRESSIVE DISEASE,2024-05-17,TREATMENT
SYNTH-ONC-001,DS,SYNTH-ONC-001-0107,3,DISPOSITION EVENT,EVEROLIMUS,PROGRESSIVE DISEASE,2024-05-17,TREATMENT
SYNTH-ONC-001,DS,SYNTH-ONC-001-0107,4,DISPOSITION EVENT,STUDY,DEATH,2025-04-25,FOLLOW-UP
SYNTH-ONC-001,DS,SYNTH-ONC-001-0108,1,PROTOCOL MILESTONE,,RANDOMIZED,2022-03-14,SCREENING
SYNTH-ONC-001,DS,SYNTH-ONC-001-0108,2,DISPOSITION EVENT,FULVESTRANT,PROGRESSIVE DISEASE,2022-07-05,TREATMENT
SYNTH-ONC-001,DS,SYNTH-ONC-001-0108,3,DISPOSITION EVENT,EVEROLIMUS,PROGRESSIVE DISEASE,2022-07-05,TREATMENT
SYNTH-ONC-001,DS,SYNTH-ONC-001-0108,4,DISPOSITION EVENT,STUDY,DEATH,2022-07-08,FOLLOW-UP
SYNTH-ONC-001,DS,SYNTH-ONC-001-0109,1,PROTOCOL MILESTONE,,RANDOMIZED,2021-10-10,SCREENING
SYNTH-ONC-001,DS,SYNTH-ONC-001-0109,2,DISPOSITION EVENT,FULVESTRANT,PROGRESSIVE DISEASE,2022-01-02,TREATMENT
SYNTH-ONC-001,DS,SYNTH-ONC-001-0109,3,DISPOSITION EVENT,PLACEBO,PROGRESSIVE DISEASE,2022-01-02,TREATMENT
SYNTH-ONC-001,DS,SYNTH-ONC-001-0109,4,DISPOSITION EVENT,STUDY,DEATH,2022-03-24,FOLLOW-UP
SYNTH-ONC-001,DS,SYNTH-ONC-001-0110,1,PROTOCOL MILESTONE,,RANDOMIZED,2021-01-27,SCREENING
SYNTH-ONC-001,DS,SYNTH-ONC-001-0110,2,DISPOSITION EVENT,FULVESTRANT,PROGRESSIVE DISEASE,2022-09-29,TREATMENT
SYNTH-ONC-001,DS,SYNTH-ONC-001-0110,3,DISPOSITION EVENT,PLACEBO,PROGRESSIVE DISEASE,2022-09-29,TREATMENT
SYNTH-ONC-001,DS,SYNTH-ONC-001-0110,4,DISPOSITION EVENT,STUDY,DEATH,2023-02-25,FOLLOW-UP
SYNTH-ONC-001,DS,SYNTH-ONC-001-0111,1,PROTOCOL MILESTONE,,RANDOMIZED,2021-08-14,SCREENING
SYNTH-ONC-001,DS,SYNTH-ONC-001-0111,2,DISPOSITION EVENT,FULVESTRANT,PROGRESSIVE DISEASE,2022-02-03,TREATMENT
SYNTH-ONC-001,DS,SYNTH-ONC-001-0111,3,DISPOSITION EVENT,PLACEBO,PROGRESSIVE DISEASE,2022-02-03,TREATMENT
SYNTH-ONC-001,DS,SYNTH-ONC-001-0111,4,DISPOSITION EVENT,STUDY,DEATH,2022-03-17,FOLLOW-UP
SYNTH-ONC-001,DS,SYNTH-ONC-001-0112,1,PROTOCOL MILESTONE,,RANDOMIZED,2021-10-04,SCREENING
SYNTH-ONC-001,DS,SYNTH-ONC-001-0112,2,DISPOSITION EVENT,FULVESTRANT,COMPLETED,2023-03-02,TREATMENT
SYNTH-ONC-001,DS,SYNTH-ONC-001-0112,3,DISPOSITION EVENT,EVEROLIMUS,COMPLETED,2023-03-02,TREATMENT
SYNTH-ONC-001,DS,SYNTH-ONC-001-0113,1,PROTOCOL MILESTONE,,RANDOMIZED,2022-09-01,SCREENING
SYNTH-ONC-001,DS,SYNTH-ONC-001-0113,2,DISPOSITION EVENT,FULVESTRANT,COMPLETED,2022-11-27,TREATMENT
SYNTH-ONC-001,DS,SYNTH-ONC-001-0113,3,DISPOSITION EVENT,PLACEBO,COMPLETED,2022-11-27,TREATMENT
SYNTH-ONC-001,DS,SYNTH-ONC-001-0114,1,PROTOCOL MILESTONE,,RANDOMIZED,2021-10-11,SCREENING
SYNTH-ONC-001,DS,SYNTH-ONC-001-0114,2,DISPOSITION EVENT,FULVESTRANT,PROGRESSIVE DISEASE,2022-01-03,TREATMENT
SYNTH-ONC-001,DS,SYNTH-ONC-001-0114,3,DISPOSITION EVENT,PLACEBO,PROGRESSIVE DISEASE,2022-01-03,TREATMENT
SYNTH-ONC-001,DS,SYNTH-ONC-001-0114,4,DISPOSITION EVENT,STUDY,DEATH,2022-09-12,FOLLOW-UP
SYNTH-ONC-001,DS,SYNTH-ONC-001-0115,1,PROTOCOL MILESTONE,,RANDOMIZED,2022-04-26,SCREENING
SYNTH-ONC-001,DS,SYNTH-ONC-001-0115,2,DISPOSITION EVENT,FULVESTRANT,PROGRESSIVE DISEASE,2022-07-26,TREATMENT
SYNTH-ONC-001,DS,SYNTH-ONC-001-0115,3,DISPOSITION EVENT,EVEROLIMUS,PROGRESSIVE DISEASE,2022-07-26,TREATMENT
SYNTH-ONC-001,DS,SYNTH-ONC-001-0115,4,DISPOSITION EVENT,STUDY,DEATH,2022-09-27,FOLLOW-UP
SYNTH-ONC-001,DS,SYNTH-ONC-001-0116,1,PROTOCOL MILESTONE,,RANDOMIZED,2022-03-29,SCREENING
SYNTH-ONC-001,DS,SYNTH-ONC-001-0116,2,DISPOSITION EVENT,FULVESTRANT,PROGRESSIVE DISEASE,2022-06-21,TREATMENT
SYNTH-ONC-001,DS,SYNTH-ONC-001-0116,3,DISPOSITION EVENT,PLACEBO,PROGRESSIVE DISEASE,2022-06-21,TREATMENT
SYNTH-ONC-001,DS,SYNTH-ONC-001-0116,4,DISPOSITION EVENT,STUDY,DEATH,2022-07-24,FOLLOW-UP
SYNTH-ONC-001,DS,SYNTH-ONC-001-0117,1,PROTOCOL MILESTONE,,RANDOMIZED,2022-10-21,SCREENING
SYNTH-ONC-001,DS,SYNTH-ONC-001-0117,2,DISPOSITION EVENT,FULVESTRANT,PROGRESSIVE DISEASE,2025-10-28,TREATMENT
SYNTH-ONC-001,DS,SYNTH-ONC-001-0117,3,DISPOSITION EVENT,EVEROLIMUS,PROGRESSIVE DISEASE,2025-10-28,TREATMENT
SYNTH-ONC-001,DS,SYNTH-ONC-001-0117,4,DISPOSITION EVENT,STUDY,DEATH,2026-07-29,FOLLOW-UP
SYNTH-ONC-001,DS,SYNTH-ONC-001-0118,1,PROTOCOL MILESTONE,,RANDOMIZED,2022-05-31,SCREENING
SYNTH-ONC-001,DS,SYNTH-ONC-001-0118,2,DISPOSITION EVENT,FULVESTRANT,PROGRESSIVE DISEASE,2023-05-13,TREATMENT
SYNTH-ONC-001,DS,SYNTH-ONC-001-0118,3,DISPOSITION EVENT,EVEROLIMUS,PROGRESSIVE DISEASE,2023-05-13,TREATMENT
SYNTH-ONC-001,DS,SYNTH-ONC-001-0118,4,DISPOSITION EVENT,STUDY,DEATH,2023-06-17,FOLLOW-UP
SYNTH-ONC-001,DS,SYNTH-ONC-001-0119,1,PROTOCOL MILESTONE,,RANDOMIZED,2022-07-01,SCREENING
SYNTH-ONC-001,DS,SYNTH-ONC-001-0119,2,DISPOSITION EVENT,FULVESTRANT,PROGRESSIVE DISEASE,2022-12-25,TREATMENT
SYNTH-ONC-001,DS,SYNTH-ONC-001-0119,3,DISPOSITION EVENT,PLACEBO,PROGRESSIVE DISEASE,2022-12-25,TREATMENT
SYNTH-ONC-001,DS,SYNTH-ONC-001-0119,4,DISPOSITION EVENT,STUDY,DEATH,2023-06-16,FOLLOW-UP
SYNTH-ONC-001,DS,SYNTH-ONC-001-0120,1,PROTOCOL MILESTONE,,RANDOMIZED,2021-07-11,SCREENING
SYNTH-ONC-001,DS,SYNTH-ONC-001-0120,2,DISPOSITION EVENT,FULVESTRANT,PROGRESSIVE DISEASE,2022-03-21,TREATMENT
SYNTH-ONC-001,DS,SYNTH-ONC-001-0120,3,DISPOSITION EVENT,EVEROLIMUS,PROGRESSIVE DISEASE,2022-03-21,TREATMENT
SYNTH-ONC-001,DS,SYNTH-ONC-001-0120,4,DISPOSITION EVENT,STUDY,DEATH,2022-05-06,FOLLOW-UP
SYNTH-ONC-001,DS,SYNTH-ONC-001-0121,1,PROTOCOL MILESTONE,,RANDOMIZED,2021-02-18,SCREENING
SYNTH-ONC-001,DS,SYNTH-ONC-001-0121,2,DISPOSITION EVENT,FULVESTRANT,COMPLETED,2022-09-27,TREATMENT
SYNTH-ONC-001,DS,SYNTH-ONC-001-0121,3,DISPOSITION EVENT,EVEROLIMUS,COMPLETED,2022-09-27,TREATMENT
SYNTH-ONC-001,DS,SYNTH-ONC-001-0122,1,PROTOCOL MILESTONE,,RANDOMIZED,2022-05-27,SCREENING
SYNTH-ONC-001,DS,SYNTH-ONC-001-0122,2,DISPOSITION EVENT,FULVESTRANT,PROGRESSIVE DISEASE,2022-12-03,TREATMENT
SYNTH-ONC-001,DS,SYNTH-ONC-001-0122,3,DISPOSITION EVENT,PLACEBO,PROGRESSIVE DISEASE,2022-12-03,TREATMENT
SYNTH-ONC-001,DS,SYNTH-ONC-001-0122,4,DISPOSITION EVENT,STUDY,DEATH,2023-01-16,FOLLOW-UP
SYNTH-ONC-001,DS,SYNTH-ONC-001-0123,1,PROTOCOL MILESTONE,,RANDOMIZED,2021-01-17,SCREENING
SYNTH-ONC-001,DS,SYNTH-ONC-001-0123,2,DISPOSITION EVENT,FULVESTRANT,PROGRESSIVE DISEASE,2022-04-01,TREATMENT
SYNTH-ONC-001,DS,SYNTH-ONC-001-0123,3,DISPOSITION EVENT,PLACEBO,PROGRESSIVE DISEASE,2022-04-01,TREATMENT
SYNTH-ONC-001,DS,SYNTH-ONC-001-0123,4,DISPOSITION EVENT,STUDY,DEATH,2022-10-09,FOLLOW-UP
SYNTH-ONC-001,DS,SYNTH-ONC-001-0124,1,PROTOCOL MILESTONE,,RANDOMIZED,2021-06-21,SCREENING
SYNTH-ONC-001,DS,SYNTH-ONC-001-0124,2,DISPOSITION EVENT,FULVESTRANT,PROGRESSIVE DISEASE,2021-09-25,TREATMENT
SYNTH-ONC-001,DS,SYNTH-ONC-001-0124,3,DISPOSITION EVENT,PLACEBO,PROGRESSIVE DISEASE,2021-09-25,TREATMENT
SYNTH-ONC-001,DS,SYNTH-ONC-001-0125,1,PROTOCOL MILESTONE,,RANDOMIZED,2021-08-08,SCREENING
SYNTH-ONC-001,DS,SYNTH-ONC-001-0125,2,DISPOSITION EVENT,FULVESTRANT,PROGRESSIVE DISEASE,2021-10-31,TREATMENT
SYNTH-ONC-001,DS,SYNTH-ONC-001-0125,3,DISPOSITION EVENT,EVEROLIMUS,PROGRESSIVE DISEASE,2021-10-31,TREATMENT
SYNTH-ONC-001,DS,SYNTH-ONC-001-0125,4,DISPOSITION EVENT,STUDY,DEATH,2022-08-09,FOLLOW-UP
SYNTH-ONC-001,DS,SYNTH-ONC-001-0126,1,PROTOCOL MILESTONE,,RANDOMIZED,2021-06-07,SCREENING
SYNTH-ONC-001,DS,SYNTH-ONC-001-0126,2,DISPOSITION EVENT,FULVESTRANT,PROGRESSIVE DISEASE,2021-10-24,TREATMENT
SYNTH-ONC-001,DS,SYNTH-ONC-001-0126,3,DISPOSITION EVENT,EVEROLIMUS,PROGRESSIVE DISEASE,2021-10-24,TREATMENT
SYNTH-ONC-001,DS,SYNTH-ONC-001-0126,4,DISPOSITION EVENT,STUDY,DEATH,2022-05-03,FOLLOW-UP
SYNTH-ONC-001,DS,SYNTH-ONC-001-0127,1,PROTOCOL MILESTONE,,RANDOMIZED,2022-04-22,SCREENING
SYNTH-ONC-001,DS,SYNTH-ONC-001-0127,2,DISPOSITION EVENT,FULVESTRANT,PROGRESSIVE DISEASE,2022-07-15,TREATMENT
SYNTH-ONC-001,DS,SYNTH-ONC-001-0127,3,DISPOSITION EVENT,PLACEBO,PROGRESSIVE DISEASE,2022-07-15,TREATMENT
SYNTH-ONC-001,DS,SYNTH-ONC-001-0127,4,DISPOSITION EVENT,STUDY,DEATH,2022-11-26,FOLLOW-UP
SYNTH-ONC-001,DS,SYNTH-ONC-001-0128,1,PROTOCOL MILESTONE,,RANDOMIZED,2021-02-15,SCREENING
SYNTH-ONC-001,DS,SYNTH-ONC-001-0128,2,DISPOSITION EVENT,FULVESTRANT,PROGRESSIVE DISEASE,2021-10-05,TREATMENT
SYNTH-ONC-001,DS,SYNTH-ONC-001-0128,3,DISPOSITION EVENT,PLACEBO,PROGRESSIVE DISEASE,2021-10-05,TREATMENT
SYNTH-ONC-001,DS,SYNTH-ONC-001-0128,4,DISPOSITION EVENT,STUDY,DEATH,2021-11-09,FOLLOW-UP
SYNTH-ONC-001,DS,SYNTH-ONC-001-0129,1,PROTOCOL MILESTONE,,RANDOMIZED,2022-01-08,SCREENING
SYNTH-ONC-001,DS,SYNTH-ONC-001-0129,2,DISPOSITION EVENT,FULVESTRANT,PROGRESSIVE DISEASE,2025-02-26,TREATMENT
SYNTH-ONC-001,DS,SYNTH-ONC-001-0129,3,DISPOSITION EVENT,EVEROLIMUS,PROGRESSIVE DISEASE,2025-02-26,TREATMENT
SYNTH-ONC-001,DS,SYNTH-ONC-001-0129,4,DISPOSITION EVENT,STUDY,DEATH,2026-10-16,FOLLOW-UP
SYNTH-ONC-001,DS,SYNTH-ONC-001-0130,1,PROTOCOL MILESTONE,,RANDOMIZED,2022-06-02,SCREENING
SYNTH-ONC-001,DS,SYNTH-ONC-001-0130,2,DISPOSITION EVENT,FULVESTRANT,COMPLETED,2024-01-05,TREATMENT
SYNTH-ONC-001,DS,SYNTH-ONC-001-0130,3,DISPOSITION EVENT,EVEROLIMUS,COMPLETED,2024-01-05,TREATMENT
SYNTH-ONC-001,DS,SYNTH-ONC-001-0131,1,PROTOCOL MILESTONE,,RANDOMIZED,2021-04-09,SCREENING
SYNTH-ONC-001,DS,SYNTH-ONC-001-0131,2,DISPOSITION EVENT,FULVESTRANT,PROGRESSIVE DISEASE,2022-06-01,TREATMENT
SYNTH-ONC-001,DS,SYNTH-ONC-001-0131,3,DISPOSITION EVENT,PLACEBO,PROGRESSIVE DISEASE,2022-06-01,TREATMENT
SYNTH-ONC-001,DS,SYNTH-ONC-001-0131,4,DISPOSITION EVENT,STUDY,DEATH,2022-06-26,FOLLOW-UP
SYNTH-ONC-001,DS,SYNTH-ONC-001-0132,1,PROTOCOL MILESTONE,,RANDOMIZED,2021-02-06,SCREENING
SYNTH-ONC-001,DS,SYNTH-ONC-001-0132,2,DISPOSITION EVENT,FULVESTRANT,COMPLETED,2021-07-23,TREATMENT
SYNTH-ONC-001,DS,SYNTH-ONC-001-0132,3,DISPOSITION EVENT,EVEROLIMUS,COMPLETED,2021-07-23,TREATMENT
SYNTH-ONC-001,DS,SYNTH-ONC-001-0133,1,PROTOCOL MILESTONE,,RANDOMIZED,2021-10-07,SCREENING
SYNTH-ONC-001,DS,SYNTH-ONC-001-0133,2,DISPOSITION EVENT,FULVESTRANT,PROGRESSIVE DISEASE,2022-07-08,TREATMENT
SYNTH-ONC-001,DS,SYNTH-ONC-001-0133,3,DISPOSITION EVENT,EVEROLIMUS,PROGRESSIVE DISEASE,2022-07-08,TREATMENT
SYNTH-ONC-001,DS,SYNTH-ONC-001-0133,4,DISPOSITION EVENT,STUDY,DEATH,2023-04-15,FOLLOW-UP
SYNTH-ONC-001,DS,SYNTH-ONC-001-0134,1,PROTOCOL MILESTONE,,RANDOMIZED,2021-12-15,SCREENING
SYNTH-ONC-001,DS,SYNTH-ONC-001-0134,2,DISPOSITION EVENT,FULVESTRANT,PROGRESSIVE DISEASE,2022-05-07,TREATMENT
SYNTH-ONC-001,DS,SYNTH-ONC-001-0134,3,DISPOSITION EVENT,PLACEBO,PROGRESSIVE DISEASE,2022-05-07,TREATMENT
SYNTH-ONC-001,DS,SYNTH-ONC-001-0134,4,DISPOSITION EVENT,STUDY,DEATH,2022-11-28,FOLLOW-UP
SYNTH-ONC-001,DS,SYNTH-ONC-001-0135,1,PROTOCOL MILESTONE,,RANDOMIZED,2022-05-12,SCREENING
SYNTH-ONC-001,DS,SYNTH-ONC-001-0135,2,DISPOSITION EVENT,FULVESTRANT,PROGRESSIVE DISEASE,2022-08-04,TREATMENT
SYNTH-ONC-001,DS,SYNTH-ONC-001-0135,3,DISPOSITION EVENT,EVEROLIMUS,PROGRESSIVE DISEASE,2022-08-04,TREATMENT
SYNTH-ONC-001,DS,SYNTH-ONC-001-0135,4,DISPOSITION EVENT,STUDY,DEATH,2023-01-24,FOLLOW-UP
SYNTH-ONC-001,DS,SYNTH-ONC-001-0136,1,PROTOCOL MILESTONE,,RANDOMIZED,2021-10-29,SCREENING
SYNTH-ONC-001,DS,SYNTH-ONC-001-0136,2,DISPOSITION EVENT,FULVESTRANT,PROGRESSIVE DISEASE,2022-01-21,TREATMENT
SYNTH-ONC-001,DS,SYNTH-ONC-001-0136,3,DISPOSITION EVENT,PLACEBO,PROGRESSIVE DISEASE,2022-01-21,TREATMENT
SYNTH-ONC-001,DS,SYNTH-ONC-001-0136,4,DISPOSITION EVENT,STUDY,DEATH,2022-12-10,FOLLOW-UP
SYNTH-ONC-001,DS,SYNTH-ONC-001-0137,1,PROTOCOL MILESTONE,,RANDOMIZED,2021-06-30,SCREENING
SYNTH-ONC-001,DS,SYNTH-ONC-001-0137,2,DISPOSITION EVENT,FULVESTRANT,PROGRESSIVE DISEASE,2022-08-24,TREATMENT
SYNTH-ONC-001,DS,SYNTH-ONC-001-0137,3,DISPOSITION EVENT,EVEROLIMUS,PROGRESSIVE DISEASE,2022-08-24,TREATMENT
SYNTH-ONC-001,DS,SYNTH-ONC-001-0137,4,DISPOSITION EVENT,STUDY,DEATH,2022-10-02,FOLLOW-UP
SYNTH-ONC-001,DS,SYNTH-ONC-001-0138,1,PROTOCOL MILESTONE,,RANDOMIZED,2022-08-30,SCREENING
SYNTH-ONC-001,DS,SYNTH-ONC-001-0138,2,DISPOSITION EVENT,FULVESTRANT,PROGRESSIVE DISEASE,2024-05-25,TREATMENT
SYNTH-ONC-001,DS,SYNTH-ONC-001-0138,3,DISPOSITION EVENT,PLACEBO,PROGRESSIVE DISEASE,2024-05-25,TREATMENT
SYNTH-ONC-001,DS,SYNTH-ONC-001-0138,4,DISPOSITION EVENT,STUDY,DEATH,2024-06-01,FOLLOW-UP
SYNTH-ONC-001,DS,SYNTH-ONC-001-0139,1,PROTOCOL MILESTONE,,RANDOMIZED,2021-04-09,SCREENING
SYNTH-ONC-001,DS,SYNTH-ONC-001-0139,2,DISPOSITION EVENT,FULVESTRANT,WITHDRAWAL BY SUBJECT,2022-10-24,TREATMENT
SYNTH-ONC-001,DS,SYNTH-ONC-001-0139,3,DISPOSITION EVENT,EVEROLIMUS,WITHDRAWAL BY SUBJECT,2022-10-24,TREATMENT
SYNTH-ONC-001,DS,SYNTH-ONC-001-0140,1,PROTOCOL MILESTONE,,RANDOMIZED,2022-12-01,SCREENING
SYNTH-ONC-001,DS,SYNTH-ONC-001-0140,2,DISPOSITION EVENT,FULVESTRANT,PROGRESSIVE DISEASE,2023-02-23,TREATMENT
SYNTH-ONC-001,DS,SYNTH-ONC-001-0140,3,DISPOSITION EVENT,PLACEBO,PROGRESSIVE DISEASE,2023-02-23,TREATMENT
SYNTH-ONC-001,DS,SYNTH-ONC-001-0140,4,DISPOSITION EVENT,STUDY,DEATH,2023-08-28,FOLLOW-UP
SYNTH-ONC-001,DS,SYNTH-ONC-001-0141,1,PROTOCOL MILESTONE,,RANDOMIZED,2021-04-26,SCREENING
SYNTH-ONC-001,DS,SYNTH-ONC-001-0141,2,DISPOSITION EVENT,FULVESTRANT,PROGRESSIVE DISEASE,2021-10-01,TREATMENT
SYNTH-ONC-001,DS,SYNTH-ONC-001-0141,3,DISPOSITION EVENT,PLACEBO,PROGRESSIVE DISEASE,2021-10-01,TREATMENT
SYNTH-ONC-001,DS,SYNTH-ONC-001-0141,4,DISPOSITION EVENT,STUDY,DEATH,2021-11-25,FOLLOW-UP
SYNTH-ONC-001,DS,SYNTH-ONC-001-0142,1,PROTOCOL MILESTONE,,RANDOMIZED,2021-07-10,SCREENING
SYNTH-ONC-001,DS,SYNTH-ONC-001-0142,2,DISPOSITION EVENT,FULVESTRANT,PROGRESSIVE DISEASE,2021-10-02,TREATMENT
SYNTH-ONC-001,DS,SYNTH-ONC-001-0142,3,DISPOSITION EVENT,PLACEBO,PROGRESSIVE DISEASE,2021-10-02,TREATMENT
SYNTH-ONC-001,DS,SYNTH-ONC-001-0142,4,DISPOSITION EVENT,STUDY,DEATH,2021-10-26,FOLLOW-UP
SYNTH-ONC-001,DS,SYNTH-ONC-001-0143,1,PROTOCOL MILESTONE,,RANDOMIZED,2021-09-10,SCREENING
SYNTH-ONC-001,DS,SYNTH-ONC-001-0143,2,DISPOSITION EVENT,FULVESTRANT,PROGRESSIVE DISEASE,2022-02-17,TREATMENT
SYNTH-ONC-001,DS,SYNTH-ONC-001-0143,3,DISPOSITION EVENT,PLACEBO,PROGRESSIVE DISEASE,2022-02-17,TREATMENT
SYNTH-ONC-001,DS,SYNTH-ONC-001-0144,1,PROTOCOL MILESTONE,,RANDOMIZED,2021-06-10,SCREENING
SYNTH-ONC-001,DS,SYNTH-ONC-001-0144,2,DISPOSITION EVENT,FULVESTRANT,PROGRESSIVE DISEASE,2021-09-02,TREATMENT
SYNTH-ONC-001,DS,SYNTH-ONC-001-0144,3,DISPOSITION EVENT,EVEROLIMUS,PROGRESSIVE DISEASE,2021-09-02,TREATMENT
SYNTH-ONC-001,DS,SYNTH-ONC-001-0144,4,DISPOSITION EVENT,STUDY,DEATH,2022-03-10,FOLLOW-UP
SYNTH-ONC-001,DS,SYNTH-ONC-001-0145,1,PROTOCOL MILESTONE,,RANDOMIZED,2021-09-13,SCREENING
SYNTH-ONC-001,DS,SYNTH-ONC-001-0145,2,DISPOSITION EVENT,FULVESTRANT,PROGRESSIVE DISEASE,2022-01-07,TREATMENT
SYNTH-ONC-001,DS,SYNTH-ONC-001-0145,3,DISPOSITION EVENT,EVEROLIMUS,PROGRESSIVE DISEASE,2022-01-07,TREATMENT
SYNTH-ONC-001,DS,SYNTH-ONC-001-0146,1,PROTOCOL MILESTONE,,RANDOMIZED,2021-11-19,SCREENING
SYNTH-ONC-001,DS,SYNTH-ONC-001-0146,2,DISPOSITION EVENT,FULVESTRANT,PROGRESSIVE DISEASE,2023-08-22,TREATMENT
SYNTH-ONC-001,DS,SYNTH-ONC-001-0146,3,DISPOSITION EVENT,EVEROLIMUS,PROGRESSIVE DISEASE,2023-08-22,TREATMENT
SYNTH-ONC-001,DS,SYNTH-ONC-001-0146,4,DISPOSITION EVENT,STUDY,DEATH,2024-08-09,FOLLOW-UP
SYNTH-ONC-001,DS,SYNTH-ONC-001-0147,1,PROTOCOL MILESTONE,,RANDOMIZED,2021-05-08,SCREENING
SYNTH-ONC-001,DS,SYNTH-ONC-001-0147,2,DISPOSITION EVENT,FULVESTRANT,PROGRESSIVE DISEASE,2022-09-10,TREATMENT
SYNTH-ONC-001,DS,SYNTH-ONC-001-0147,3,DISPOSITION EVENT,EVEROLIMUS,PROGRESSIVE DISEASE,2022-09-10,TREATMENT
SYNTH-ONC-001,DS,SYNTH-ONC-001-0147,4,DISPOSITION EVENT,STUDY,DEATH,2024-03-26,FOLLOW-UP
SYNTH-ONC-001,DS,SYNTH-ONC-001-0148,1,PROTOCOL MILESTONE,,RANDOMIZED,2021-01-18,SCREENING
SYNTH-ONC-001,DS,SYNTH-ONC-001-0148,2,DISPOSITION EVENT,FULVESTRANT,PROGRESSIVE DISEASE,2021-11-01,TREATMENT
SYNTH-ONC-001,DS,SYNTH-ONC-001-0148,3,DISPOSITION EVENT,PLACEBO,PROGRESSIVE DISEASE,2021-11-01,TREATMENT
SYNTH-ONC-001,DS,SYNTH-ONC-001-0148,4,DISPOSITION EVENT,STUDY,DEATH,2021-11-20,FOLLOW-UP
SYNTH-ONC-001,DS,SYNTH-ONC-001-0149,1,PROTOCOL MILESTONE,,RANDOMIZED,2022-07-20,SCREENING
SYNTH-ONC-001,DS,SYNTH-ONC-001-0149,2,DISPOSITION EVENT,FULVESTRANT,PROGRESSIVE DISEASE,2023-12-17,TREATMENT
SYNTH-ONC-001,DS,SYNTH-ONC-001-0149,3,DISPOSITION EVENT,EVEROLIMUS,PROGRESSIVE DISEASE,2023-12-17,TREATMENT
SYNTH-ONC-001,DS,SYNTH-ONC-001-0149,4,DISPOSITION EVENT,STUDY,DEATH,2025-05-15,FOLLOW-UP
SYNTH-ONC-001,DS,SYNTH-ONC-001-0150,1,PROTOCOL MILESTONE,,RANDOMIZED,2022-07-24,SCREENING
SYNTH-ONC-001,DS,SYNTH-ONC-001-0150,2,DISPOSITION EVENT,FULVESTRANT,PROGRESSIVE DISEASE,2022-10-16,TREATMENT
SYNTH-ONC-001,DS,SYNTH-ONC-001-0150,3,DISPOSITION EVENT,EVEROLIMUS,PROGRESSIVE DISEASE,2022-10-16,TREATMENT
SYNTH-ONC-001,DS,SYNTH-ONC-001-0151,1,PROTOCOL MILESTONE,,RANDOMIZED,2021-11-19,SCREENING
SYNTH-ONC-001,DS,SYNTH-ONC-001-0151,2,DISPOSITION EVENT,FULVESTRANT,PROGRESSIVE DISEASE,2024-05-07,TREATMENT
SYNTH-ONC-001,DS,SYNTH-ONC-001-0151,3,DISPOSITION EVENT,PLACEBO,PROGRESSIVE DISEASE,2024-05-07,TREATMENT
SYNTH-ONC-001,DS,SYNTH-ONC-001-0151,4,DISPOSITION EVENT,STUDY,DEATH,2024-07-04,FOLLOW-UP
SYNTH-ONC-001,DS,SYNTH-ONC-001-0152,1,PROTOCOL MILESTONE,,RANDOMIZED,2022-11-17,SCREENING
SYNTH-ONC-001,DS,SYNTH-ONC-001-0152,2,DISPOSITION EVENT,FULVESTRANT,PROGRESSIVE DISEASE,2023-06-08,TREATMENT
SYNTH-ONC-001,DS,SYNTH-ONC-001-0152,3,DISPOSITION EVENT,PLACEBO,PROGRESSIVE DISEASE,2023-06-08,TREATMENT
SYNTH-ONC-001,DS,SYNTH-ONC-001-0153,1,PROTOCOL MILESTONE,,RANDOMIZED,2022-09-18,SCREENING
SYNTH-ONC-001,DS,SYNTH-ONC-001-0153,2,DISPOSITION EVENT,FULVESTRANT,PROGRESSIVE DISEASE,2022-12-11,TREATMENT
SYNTH-ONC-001,DS,SYNTH-ONC-001-0153,3,DISPOSITION EVENT,EVEROLIMUS,PROGRESSIVE DISEASE,2022-12-11,TREATMENT
SYNTH-ONC-001,DS,SYNTH-ONC-001-0153,4,DISPOSITION EVENT,STUDY,DEATH,2023-09-10,FOLLOW-UP
SYNTH-ONC-001,DS,SYNTH-ONC-001-0154,1,PROTOCOL MILESTONE,,RANDOMIZED,2021-10-15,SCREENING
SYNTH-ONC-001,DS,SYNTH-ONC-001-0154,2,DISPOSITION EVENT,FULVESTRANT,PROGRESSIVE DISEASE,2023-06-04,TREATMENT
SYNTH-ONC-001,DS,SYNTH-ONC-001-0154,3,DISPOSITION EVENT,EVEROLIMUS,PROGRESSIVE DISEASE,2023-06-04,TREATMENT
SYNTH-ONC-001,DS,SYNTH-ONC-001-0155,1,PROTOCOL MILESTONE,,RANDOMIZED,2022-10-25,SCREENING
SYNTH-ONC-001,DS,SYNTH-ONC-001-0155,2,DISPOSITION EVENT,FULVESTRANT,PROGRESSIVE DISEASE,2023-01-17,TREATMENT
SYNTH-ONC-001,DS,SYNTH-ONC-001-0155,3,DISPOSITION EVENT,EVEROLIMUS,PROGRESSIVE DISEASE,2023-01-17,TREATMENT
SYNTH-ONC-001,DS,SYNTH-ONC-001-0155,4,DISPOSITION EVENT,STUDY,DEATH,2023-04-14,FOLLOW-UP
SYNTH-ONC-001,DS,SYNTH-ONC-001-0156,1,PROTOCOL MILESTONE,,RANDOMIZED,2022-10-01,SCREENING
SYNTH-ONC-001,DS,SYNTH-ONC-001-0156,2,DISPOSITION EVENT,FULVESTRANT,COMPLETED,2024-03-03,TREATMENT
SYNTH-ONC-001,DS,SYNTH-ONC-001-0156,3,DISPOSITION EVENT,EVEROLIMUS,COMPLETED,2024-03-03,TREATMENT
SYNTH-ONC-001,DS,SYNTH-ONC-001-0157,1,PROTOCOL MILESTONE,,RANDOMIZED,2021-06-04,SCREENING
SYNTH-ONC-001,DS,SYNTH-ONC-001-0157,2,DISPOSITION EVENT,FULVESTRANT,PROGRESSIVE DISEASE,2021-10-27,TREATMENT
SYNTH-ONC-001,DS,SYNTH-ONC-001-0157,3,DISPOSITION EVENT,PLACEBO,PROGRESSIVE DISEASE,2021-10-27,TREATMENT
SYNTH-ONC-001,DS,SYNTH-ONC-001-0157,4,DISPOSITION EVENT,STUDY,DEATH,2021-12-12,FOLLOW-UP
SYNTH-ONC-001,DS,SYNTH-ONC-001-0158,1,PROTOCOL MILESTONE,,RANDOMIZED,2022-05-05,SCREENING
SYNTH-ONC-001,DS,SYNTH-ONC-001-0158,2,DISPOSITION EVENT,FULVESTRANT,PROGRESSIVE DISEASE,2023-04-27,TREATMENT
SYNTH-ONC-001,DS,SYNTH-ONC-001-0158,3,DISPOSITION EVENT,PLACEBO,PROGRESSIVE DISEASE,2023-04-27,TREATMENT
SYNTH-ONC-001,DS,SYNTH-ONC-001-0159,1,PROTOCOL MILESTONE,,RANDOMIZED,2022-01-21,SCREENING
SYNTH-ONC-001,DS,SYNTH-ONC-001-0159,2,DISPOSITION EVENT,FULVESTRANT,PROGRESSIVE DISEASE,2022-04-15,TREATMENT
SYNTH-ONC-001,DS,SYNTH-ONC-001-0159,3,DISPOSITION EVENT,EVEROLIMUS,PROGRESSIVE DISEASE,2022-04-15,TREATMENT
SYNTH-ONC-001,DS,SYNTH-ONC-001-0159,4,DISPOSITION EVENT,STUDY,DEATH,2023-05-05,FOLLOW-UP
SYNTH-ONC-001,DS,SYNTH-ONC-001-0160,1,PROTOCOL MILESTONE,,RANDOMIZED,2021-04-14,SCREENING
SYNTH-ONC-001,DS,SYNTH-ONC-001-0160,2,DISPOSITION EVENT,FULVESTRANT,WITHDRAWAL BY SUBJECT,2022-11-30,TREATMENT
SYNTH-ONC-001,DS,SYNTH-ONC-001-0160,3,DISPOSITION EVENT,EVEROLIMUS,WITHDRAWAL BY SUBJECT,2022-11-30,TREATMENT
SYNTH-ONC-001,DS,SYNTH-ONC-001-0160,4,DISPOSITION EVENT,STUDY,DEATH,2026-12-31,FOLLOW-UP
SYNTH-ONC-001,DS,SYNTH-ONC-001-0161,1,PROTOCOL MILESTONE,,RANDOMIZED,2022-01-28,SCREENING
SYNTH-ONC-001,DS,SYNTH-ONC-001-0161,2,DISPOSITION EVENT,FULVESTRANT,PROGRESSIVE DISEASE,2023-05-11,TREATMENT
SYNTH-ONC-001,DS,SYNTH-ONC-001-0161,3,DISPOSITION EVENT,PLACEBO,PROGRESSIVE DISEASE,2023-05-11,TREATMENT
SYNTH-ONC-001,DS,SYNTH-ONC-001-0161,4,DISPOSITION EVENT,STUDY,DEATH,2023-05-19,FOLLOW-UP
SYNTH-ONC-001,DS,SYNTH-ONC-001-0162,1,PROTOCOL MILESTONE,,RANDOMIZED,2021-09-03,SCREENING
SYNTH-ONC-001,DS,SYNTH-ONC-001-0162,2,DISPOSITION EVENT,FULVESTRANT,WITHDRAWAL BY SUBJECT,2022-05-25,TREATMENT
SYNTH-ONC-001,DS,SYNTH-ONC-001-0162,3,DISPOSITION EVENT,PLACEBO,WITHDRAWAL BY SUBJECT,2022-05-25,TREATMENT
SYNTH-ONC-001,DS,SYNTH-ONC-001-0162,4,DISPOSITION EVENT,STUDY,DEATH,2023-10-07,FOLLOW-UP
SYNTH-ONC-001,DS,SYNTH-ONC-001-0163,1,PROTOCOL MILESTONE,,RANDOMIZED,2021-06-25,SCREENING
SYNTH-ONC-001,DS,SYNTH-ONC-001-0163,2,DISPOSITION EVENT,FULVESTRANT,PROGRESSIVE DISEASE,2021-09-17,TREATMENT
SYNTH-ONC-001,DS,SYNTH-ONC-001-0163,3,DISPOSITION EVENT,PLACEBO,PROGRESSIVE DISEASE,2021-09-17,TREATMENT
SYNTH-ONC-001,DS,SYNTH-ONC-001-0163,4,DISPOSITION EVENT,STUDY,DEATH,2022-07-05,FOLLOW-UP
SYNTH-ONC-001,DS,SYNTH-ONC-001-0164,1,PROTOCOL MILESTONE,,RANDOMIZED,2021-02-08,SCREENING
SYNTH-ONC-001,DS,SYNTH-ONC-001-0164,2,DISPOSITION EVENT,FULVESTRANT,PROGRESSIVE DISEASE,2021-11-02,TREATMENT
SYNTH-ONC-001,DS,SYNTH-ONC-001-0164,3,DISPOSITION EVENT,PLACEBO,PROGRESSIVE DISEASE,2021-11-02,TREATMENT
SYNTH-ONC-001,DS,SYNTH-ONC-001-0164,4,DISPOSITION EVENT,STUDY,DEATH,2021-11-08,FOLLOW-UP
SYNTH-ONC-001,DS,SYNTH-ONC-001-0165,1,PROTOCOL MILESTONE,,RANDOMIZED,2022-04-22,SCREENING
SYNTH-ONC-001,DS,SYNTH-ONC-001-0165,2,DISPOSITION EVENT,FULVESTRANT,COMPLETED,2022-07-16,TREATMENT
SYNTH-ONC-001,DS,SYNTH-ONC-001-0165,3,DISPOSITION EVENT,EVEROLIMUS,COMPLETED,2022-07-16,TREATMENT
SYNTH-ONC-001,DS,SYNTH-ONC-001-0166,1,PROTOCOL MILESTONE,,RANDOMIZED,2022-11-13,SCREENING
SYNTH-ONC-001,DS,SYNTH-ONC-001-0166,2,DISPOSITION EVENT,FULVESTRANT,PROGRESSIVE DISEASE,2023-06-24,TREATMENT
SYNTH-ONC-001,DS,SYNTH-ONC-001-0166,3,DISPOSITION EVENT,EVEROLIMUS,PROGRESSIVE DISEASE,2023-06-24,TREATMENT
SYNTH-ONC-001,DS,SYNTH-ONC-001-0166,4,DISPOSITION EVENT,STUDY,DEATH,2023-09-20,FOLLOW-UP
SYNTH-ONC-001,DS,SYNTH-ONC-001-0167,1,PROTOCOL MILESTONE,,RANDOMIZED,2022-06-22,SCREENING
SYNTH-ONC-001,DS,SYNTH-ONC-001-0167,2,DISPOSITION EVENT,FULVESTRANT,PROGRESSIVE DISEASE,2022-09-14,TREATMENT
SYNTH-ONC-001,DS,SYNTH-ONC-001-0167,3,DISPOSITION EVENT,PLACEBO,PROGRESSIVE DISEASE,2022-09-14,TREATMENT
SYNTH-ONC-001,DS,SYNTH-ONC-001-0167,4,DISPOSITION EVENT,STUDY,DEATH,2025-01-21,FOLLOW-UP
SYNTH-ONC-001,DS,SYNTH-ONC-001-0168,1,PROTOCOL MILESTONE,,RANDOMIZED,2022-02-12,SCREENING
SYNTH-ONC-001,DS,SYNTH-ONC-001-0168,2,DISPOSITION EVENT,FULVESTRANT,PROGRESSIVE DISEASE,2022-09-11,TREATMENT
SYNTH-ONC-001,DS,SYNTH-ONC-001-0168,3,DISPOSITION EVENT,EVEROLIMUS,PROGRESSIVE DISEASE,2022-09-11,TREATMENT
SYNTH-ONC-001,DS,SYNTH-ONC-001-0169,1,PROTOCOL MILESTONE,,RANDOMIZED,2022-06-09,SCREENING
SYNTH-ONC-001,DS,SYNTH-ONC-001-0169,2,DISPOSITION EVENT,FULVESTRANT,PROGRESSIVE DISEASE,2023-04-15,TREATMENT
SYNTH-ONC-001,DS,SYNTH-ONC-001-0169,3,DISPOSITION EVENT,PLACEBO,PROGRESSIVE DISEASE,2023-04-15,TREATMENT
SYNTH-ONC-001,DS,SYNTH-ONC-001-0170,1,PROTOCOL MILESTONE,,RANDOMIZED,2022-05-21,SCREENING
SYNTH-ONC-001,DS,SYNTH-ONC-001-0170,2,DISPOSITION EVENT,FULVESTRANT,COMPLETED,2023-10-08,TREATMENT
SYNTH-ONC-001,DS,SYNTH-ONC-001-0170,3,DISPOSITION EVENT,EVEROLIMUS,COMPLETED,2023-10-08,TREATMENT
SYNTH-ONC-001,DS,SYNTH-ONC-001-0171,1,PROTOCOL MILESTONE,,RANDOMIZED,2021-02-05,SCREENING
SYNTH-ONC-001,DS,SYNTH-ONC-001-0171,2,DISPOSITION EVENT,FULVESTRANT,PROGRESSIVE DISEASE,2021-09-10,TREATMENT
SYNTH-ONC-001,DS,SYNTH-ONC-001-0171,3,DISPOSITION EVENT,EVEROLIMUS,PROGRESSIVE DISEASE,2021-09-10,TREATMENT
SYNTH-ONC-001,DS,SYNTH-ONC-001-0172,1,PROTOCOL MILESTONE,,RANDOMIZED,2022-11-16,SCREENING
SYNTH-ONC-001,DS,SYNTH-ONC-001-0172,2,DISPOSITION EVENT,FULVESTRANT,PROGRESSIVE DISEASE,2023-10-09,TREATMENT
SYNTH-ONC-001,DS,SYNTH-ONC-001-0172,3,DISPOSITION EVENT,EVEROLIMUS,PROGRESSIVE DISEASE,2023-10-09,TREATMENT
SYNTH-ONC-001,DS,SYNTH-ONC-001-0172,4,DISPOSITION EVENT,STUDY,DEATH,2024-01-12,FOLLOW-UP
SYNTH-ONC-001,DS,SYNTH-ONC-001-0173,1,PROTOCOL MILESTONE,,RANDOMIZED,2021-01-20,SCREENING
SYNTH-ONC-001,DS,SYNTH-ONC-001-0173,2,DISPOSITION EVENT,FULVESTRANT,PROGRESSIVE DISEASE,2021-04-19,TREATMENT
SYNTH-ONC-001,DS,SYNTH-ONC-001-0173,3,DISPOSITION EVENT,EVEROLIMUS,PROGRESSIVE DISEASE,2021-04-19,TREATMENT
SYNTH-ONC-001,DS,SYNTH-ONC-001-0173,4,DISPOSITION EVENT,STUDY,DEATH,2022-03-04,FOLLOW-UP
SYNTH-ONC-001,DS,SYNTH-ONC-001-0174,1,PROTOCOL MILESTONE,,RANDOMIZED,2021-11-17,SCREENING
SYNTH-ONC-001,DS,SYNTH-ONC-001-0174,2,DISPOSITION EVENT,FULVESTRANT,PROGRESSIVE DISEASE,2022-04-04,TREATMENT
SYNTH-ONC-001,DS,SYNTH-ONC-001-0174,3,DISPOSITION EVENT,EVEROLIMUS,PROGRESSIVE DISEASE,2022-04-04,TREATMENT
SYNTH-ONC-001,DS,SYNTH-ONC-001-0174,4,DISPOSITION EVENT,STUDY,DEATH,2022-07-12,FOLLOW-UP
SYNTH-ONC-001,DS,SYNTH-ONC-001-0175,1,PROTOCOL MILESTONE,,RANDOMIZED,2022-05-27,SCREENING
SYNTH-ONC-001,DS,SYNTH-ONC-001-0175,2,DISPOSITION EVENT,FULVESTRANT,PROGRESSIVE DISEASE,2024-08-14,TREATMENT
SYNTH-ONC-001,DS,SYNTH-ONC-001-0175,3,DISPOSITION EVENT,PLACEBO,PROGRESSIVE DISEASE,2024-08-14,TREATMENT
SYNTH-ONC-001,DS,SYNTH-ONC-001-0175,4,DISPOSITION EVENT,STUDY,DEATH,2024-12-22,FOLLOW-UP
SYNTH-ONC-001,DS,SYNTH-ONC-001-0176,1,PROTOCOL MILESTONE,,RANDOMIZED,2022-02-04,SCREENING
SYNTH-ONC-001,DS,SYNTH-ONC-001-0176,2,DISPOSITION EVENT,FULVESTRANT,PROGRESSIVE DISEASE,2022-09-14,TREATMENT
SYNTH-ONC-001,DS,SYNTH-ONC-001-0176,3,DISPOSITION EVENT,PLACEBO,PROGRESSIVE DISEASE,2022-09-14,TREATMENT
SYNTH-ONC-001,DS,SYNTH-ONC-001-0177,1,PROTOCOL MILESTONE,,RANDOMIZED,2022-10-16,SCREENING
SYNTH-ONC-001,DS,SYNTH-ONC-001-0177,2,DISPOSITION EVENT,FULVESTRANT,COMPLETED,2023-12-18,TREATMENT
SYNTH-ONC-001,DS,SYNTH-ONC-001-0177,3,DISPOSITION EVENT,PLACEBO,COMPLETED,2023-12-18,TREATMENT
SYNTH-ONC-001,DS,SYNTH-ONC-001-0178,1,PROTOCOL MILESTONE,,RANDOMIZED,2022-04-16,SCREENING
SYNTH-ONC-001,DS,SYNTH-ONC-001-0178,2,DISPOSITION EVENT,FULVESTRANT,PROGRESSIVE DISEASE,2023-08-24,TREATMENT
SYNTH-ONC-001,DS,SYNTH-ONC-001-0178,3,DISPOSITION EVENT,EVEROLIMUS,PROGRESSIVE DISEASE,2023-08-24,TREATMENT
SYNTH-ONC-001,DS,SYNTH-ONC-001-0179,1,PROTOCOL MILESTONE,,RANDOMIZED,2021-05-23,SCREENING
SYNTH-ONC-001,DS,SYNTH-ONC-001-0179,2,DISPOSITION EVENT,FULVESTRANT,COMPLETED,2022-08-11,TREATMENT
SYNTH-ONC-001,DS,SYNTH-ONC-001-0179,3,DISPOSITION EVENT,PLACEBO,COMPLETED,2022-08-11,TREATMENT
SYNTH-ONC-001,DS,SYNTH-ONC-001-0180,1,PROTOCOL MILESTONE,,RANDOMIZED,2021-04-02,SCREENING
SYNTH-ONC-001,DS,SYNTH-ONC-001-0180,2,DISPOSITION EVENT,FULVESTRANT,PROGRESSIVE DISEASE,2021-06-25,TREATMENT
SYNTH-ONC-001,DS,SYNTH-ONC-001-0180,3,DISPOSITION EVENT,PLACEBO,PROGRESSIVE DISEASE,2021-06-25,TREATMENT
SYNTH-ONC-001,DS,SYNTH-ONC-001-0180,4,DISPOSITION EVENT,STUDY,DEATH,2023-04-27,FOLLOW-UP
SYNTH-ONC-001,DS,SYNTH-ONC-001-0181,1,PROTOCOL MILESTONE,,RANDOMIZED,2021-12-20,SCREENING
SYNTH-ONC-001,DS,SYNTH-ONC-001-0181,2,DISPOSITION EVENT,FULVESTRANT,PROGRESSIVE DISEASE,2022-03-14,TREATMENT
SYNTH-ONC-001,DS,SYNTH-ONC-001-0181,3,DISPOSITION EVENT,EVEROLIMUS,PROGRESSIVE DISEASE,2022-03-14,TREATMENT
SYNTH-ONC-001,DS,SYNTH-ONC-001-0181,4,DISPOSITION EVENT,STUDY,DEATH,2022-03-15,FOLLOW-UP
SYNTH-ONC-001,DS,SYNTH-ONC-001-0182,1,PROTOCOL MILESTONE,,RANDOMIZED,2022-12-28,SCREENING
SYNTH-ONC-001,DS,SYNTH-ONC-001-0182,2,DISPOSITION EVENT,FULVESTRANT,PROGRESSIVE DISEASE,2023-05-25,TREATMENT
SYNTH-ONC-001,DS,SYNTH-ONC-001-0182,3,DISPOSITION EVENT,EVEROLIMUS,PROGRESSIVE DISEASE,2023-05-25,TREATMENT
SYNTH-ONC-001,DS,SYNTH-ONC-001-0182,4,DISPOSITION EVENT,STUDY,DEATH,2023-07-18,FOLLOW-UP
SYNTH-ONC-001,DS,SYNTH-ONC-001-0183,1,PROTOCOL MILESTONE,,RANDOMIZED,2021-02-20,SCREENING
SYNTH-ONC-001,DS,SYNTH-ONC-001-0183,2,DISPOSITION EVENT,FULVESTRANT,COMPLETED,2021-12-13,TREATMENT
SYNTH-ONC-001,DS,SYNTH-ONC-001-0183,3,DISPOSITION EVENT,PLACEBO,COMPLETED,2021-12-13,TREATMENT
SYNTH-ONC-001,DS,SYNTH-ONC-001-0184,1,PROTOCOL MILESTONE,,RANDOMIZED,2022-10-27,SCREENING
SYNTH-ONC-001,DS,SYNTH-ONC-001-0184,2,DISPOSITION EVENT,FULVESTRANT,PROGRESSIVE DISEASE,2023-12-18,TREATMENT
SYNTH-ONC-001,DS,SYNTH-ONC-001-0184,3,DISPOSITION EVENT,PLACEBO,PROGRESSIVE DISEASE,2023-12-18,TREATMENT
SYNTH-ONC-001,DS,SYNTH-ONC-001-0184,4,DISPOSITION EVENT,STUDY,DEATH,2025-07-18,FOLLOW-UP
SYNTH-ONC-001,DS,SYNTH-ONC-001-0185,1,PROTOCOL MILESTONE,,RANDOMIZED,2022-11-29,SCREENING
SYNTH-ONC-001,DS,SYNTH-ONC-001-0185,2,DISPOSITION EVENT,FULVESTRANT,PROGRESSIVE DISEASE,2023-02-23,TREATMENT
SYNTH-ONC-001,DS,SYNTH-ONC-001-0185,3,DISPOSITION EVENT,PLACEBO,PROGRESSIVE DISEASE,2023-02-23,TREATMENT
SYNTH-ONC-001,DS,SYNTH-ONC-001-0185,4,DISPOSITION EVENT,STUDY,DEATH,2024-04-05,FOLLOW-UP
SYNTH-ONC-001,DS,SYNTH-ONC-001-0186,1,PROTOCOL MILESTONE,,RANDOMIZED,2022-07-29,SCREENING
SYNTH-ONC-001,DS,SYNTH-ONC-001-0186,2,DISPOSITION EVENT,FULVESTRANT,COMPLETED,2023-04-26,TREATMENT
SYNTH-ONC-001,DS,SYNTH-ONC-001-0186,3,DISPOSITION EVENT,PLACEBO,COMPLETED,2023-04-26,TREATMENT
SYNTH-ONC-001,DS,SYNTH-ONC-001-0187,1,PROTOCOL MILESTONE,,RANDOMIZED,2021-07-09,SCREENING
SYNTH-ONC-001,DS,SYNTH-ONC-001-0187,2,DISPOSITION EVENT,FULVESTRANT,PROGRESSIVE DISEASE,2023-03-03,TREATMENT
SYNTH-ONC-001,DS,SYNTH-ONC-001-0187,3,DISPOSITION EVENT,EVEROLIMUS,PROGRESSIVE DISEASE,2023-03-03,TREATMENT
SYNTH-ONC-001,DS,SYNTH-ONC-001-0187,4,DISPOSITION EVENT,STUDY,DEATH,2023-03-27,FOLLOW-UP
SYNTH-ONC-001,DS,SYNTH-ONC-001-0188,1,PROTOCOL MILESTONE,,RANDOMIZED,2021-05-05,SCREENING
SYNTH-ONC-001,DS,SYNTH-ONC-001-0188,2,DISPOSITION EVENT,FULVESTRANT,PROGRESSIVE DISEASE,2022-12-16,TREATMENT
SYNTH-ONC-001,DS,SYNTH-ONC-001-0188,3,DISPOSITION EVENT,PLACEBO,PROGRESSIVE DISEASE,2022-12-16,TREATMENT
SYNTH-ONC-001,DS,SYNTH-ONC-001-0188,4,DISPOSITION EVENT,STUDY,DEATH,2023-01-06,FOLLOW-UP
SYNTH-ONC-001,DS,SYNTH-ONC-001-0189,1,PROTOCOL MILESTONE,,RANDOMIZED,2021-05-30,SCREENING
SYNTH-ONC-001,DS,SYNTH-ONC-001-0189,2,DISPOSITION EVENT,FULVESTRANT,COMPLETED,2021-11-29,TREATMENT
SYNTH-ONC-001,DS,SYNTH-ONC-001-0189,3,DISPOSITION EVENT,EVEROLIMUS,COMPLETED,2021-11-29,TREATMENT
SYNTH-ONC-001,DS,SYNTH-ONC-001-0190,1,PROTOCOL MILESTONE,,RANDOMIZED,2021-11-10,SCREENING
SYNTH-ONC-001,DS,SYNTH-ONC-001-0190,2,DISPOSITION EVENT,FULVESTRANT,PROGRESSIVE DISEASE,2022-10-08,TREATMENT
SYNTH-ONC-001,DS,SYNTH-ONC-001-0190,3,DISPOSITION EVENT,EVEROLIMUS,PROGRESSIVE DISEASE,2022-10-08,TREATMENT
SYNTH-ONC-001,DS,SYNTH-ONC-001-0190,4,DISPOSITION EVENT,STUDY,DEATH,2024-01-06,FOLLOW-UP
SYNTH-ONC-001,DS,SYNTH-ONC-001-0191,1,PROTOCOL MILESTONE,,RANDOMIZED,2022-07-24,SCREENING
SYNTH-ONC-001,DS,SYNTH-ONC-001-0191,2,DISPOSITION EVENT,FULVESTRANT,WITHDRAWAL BY SUBJECT,2023-05-13,TREATMENT
SYNTH-ONC-001,DS,SYNTH-ONC-001-0191,3,DISPOSITION EVENT,PLACEBO,WITHDRAWAL BY SUBJECT,2023-05-13,TREATMENT
SYNTH-ONC-001,DS,SYNTH-ONC-001-0192,1,PROTOCOL MILESTONE,,RANDOMIZED,2021-12-08,SCREENING
SYNTH-ONC-001,DS,SYNTH-ONC-001-0192,2,DISPOSITION EVENT,FULVESTRANT,PROGRESSIVE DISEASE,2022-10-02,TREATMENT
SYNTH-ONC-001,DS,SYNTH-ONC-001-0192,3,DISPOSITION EVENT,PLACEBO,PROGRESSIVE DISEASE,2022-10-02,TREATMENT
SYNTH-ONC-001,DS,SYNTH-ONC-001-0192,4,DISPOSITION EVENT,STUDY,DEATH,2022-11-01,FOLLOW-UP
SYNTH-ONC-001,DS,SYNTH-ONC-001-0193,1,PROTOCOL MILESTONE,,RANDOMIZED,2021-11-01,SCREENING
SYNTH-ONC-001,DS,SYNTH-ONC-001-0193,2,DISPOSITION EVENT,FULVESTRANT,PROGRESSIVE DISEASE,2022-11-14,TREATMENT
SYNTH-ONC-001,DS,SYNTH-ONC-001-0193,3,DISPOSITION EVENT,EVEROLIMUS,PROGRESSIVE DISEASE,2022-11-14,TREATMENT
SYNTH-ONC-001,DS,SYNTH-ONC-001-0193,4,DISPOSITION EVENT,STUDY,DEATH,2022-12-05,FOLLOW-UP
SYNTH-ONC-001,DS,SYNTH-ONC-001-0194,1,PROTOCOL MILESTONE,,RANDOMIZED,2022-11-23,SCREENING
SYNTH-ONC-001,DS,SYNTH-ONC-001-0194,2,DISPOSITION EVENT,FULVESTRANT,PROGRESSIVE DISEASE,2023-09-17,TREATMENT
SYNTH-ONC-001,DS,SYNTH-ONC-001-0194,3,DISPOSITION EVENT,PLACEBO,PROGRESSIVE DISEASE,2023-09-17,TREATMENT
SYNTH-ONC-001,DS,SYNTH-ONC-001-0194,4,DISPOSITION EVENT,STUDY,DEATH,2023-10-04,FOLLOW-UP
SYNTH-ONC-001,DS,SYNTH-ONC-001-0195,1,PROTOCOL MILESTONE,,RANDOMIZED,2022-11-13,SCREENING
SYNTH-ONC-001,DS,SYNTH-ONC-001-0195,2,DISPOSITION EVENT,FULVESTRANT,PROGRESSIVE DISEASE,2023-02-05,TREATMENT
SYNTH-ONC-001,DS,SYNTH-ONC-001-0195,3,DISPOSITION EVENT,EVEROLIMUS,PROGRESSIVE DISEASE,2023-02-05,TREATMENT
SYNTH-ONC-001,DS,SYNTH-ONC-001-0195,4,DISPOSITION EVENT,STUDY,DEATH,2023-06-28,FOLLOW-UP
SYNTH-ONC-001,DS,SYNTH-ONC-001-0196,1,PROTOCOL MILESTONE,,RANDOMIZED,2021-02-23,SCREENING
SYNTH-ONC-001,DS,SYNTH-ONC-001-0196,2,DISPOSITION EVENT,FULVESTRANT,PROGRESSIVE DISEASE,2021-08-17,TREATMENT
SYNTH-ONC-001,DS,SYNTH-ONC-001-0196,3,DISPOSITION EVENT,PLACEBO,PROGRESSIVE DISEASE,2021-08-17,TREATMENT
SYNTH-ONC-001,DS,SYNTH-ONC-001-0196,4,DISPOSITION EVENT,STUDY,DEATH,2021-09-18,FOLLOW-UP
SYNTH-ONC-001,DS,SYNTH-ONC-001-0197,1,PROTOCOL MILESTONE,,RANDOMIZED,2022-03-20,SCREENING
SYNTH-ONC-001,DS,SYNTH-ONC-001-0197,2,DISPOSITION EVENT,FULVESTRANT,PROGRESSIVE DISEASE,2023-02-17,TREATMENT
SYNTH-ONC-001,DS,SYNTH-ONC-001-0197,3,DISPOSITION EVENT,EVEROLIMUS,PROGRESSIVE DISEASE,2023-02-17,TREATMENT
SYNTH-ONC-001,DS,SYNTH-ONC-001-0197,4,DISPOSITION EVENT,STUDY,DEATH,2024-06-05,FOLLOW-UP
SYNTH-ONC-001,DS,SYNTH-ONC-001-0198,1,PROTOCOL MILESTONE,,RANDOMIZED,2022-09-05,SCREENING
SYNTH-ONC-001,DS,SYNTH-ONC-001-0198,2,DISPOSITION EVENT,FULVESTRANT,PROGRESSIVE DISEASE,2023-12-26,TREATMENT
SYNTH-ONC-001,DS,SYNTH-ONC-001-0198,3,DISPOSITION EVENT,EVEROLIMUS,PROGRESSIVE DISEASE,2023-12-26,TREATMENT
SYNTH-ONC-001,DS,SYNTH-ONC-001-0198,4,DISPOSITION EVENT,STUDY,DEATH,2024-04-27,FOLLOW-UP
SYNTH-ONC-001,DS,SYNTH-ONC-001-0199,1,PROTOCOL MILESTONE,,RANDOMIZED,2021-09-21,SCREENING
SYNTH-ONC-001,DS,SYNTH-ONC-001-0199,2,DISPOSITION EVENT,FULVESTRANT,PROGRESSIVE DISEASE,2021-12-14,TREATMENT
SYNTH-ONC-001,DS,SYNTH-ONC-001-0199,3,DISPOSITION EVENT,PLACEBO,PROGRESSIVE DISEASE,2021-12-14,TREATMENT
SYNTH-ONC-001,DS,SYNTH-ONC-001-0199,4,DISPOSITION EVENT,STUDY,DEATH,2024-05-10,FOLLOW-UP
SYNTH-ONC-001,DS,SYNTH-ONC-001-0200,1,PROTOCOL MILESTONE,,RANDOMIZED,2021-02-22,SCREENING
SYNTH-ONC-001,DS,SYNTH-ONC-001-0200,2,DISPOSITION EVENT,FULVESTRANT,PROGRESSIVE DISEASE,2021-09-16,TREATMENT
SYNTH-ONC-001,DS,SYNTH-ONC-001-0200,3,DISPOSITION EVENT,PLACEBO,PROGRESSIVE DISEASE,2021-09-16,TREATMENT
SYNTH-ONC-001,DS,SYNTH-ONC-001-0200,4,DISPOSITION EVENT,STUDY,DEATH,2021-11-23,FOLLOW-UP
