STUDYID,DOMAIN,USUBJID,EXSEQ,EXTRT,EXDOSE,EXDOSU,EXROUTE,EXFREQ,EXSTDTC,EXENDTC
SYNTH-ONC-001,EX,SYNTH-ONC-001-0001,1,FULVESTRANT,500,mg,INTRAMUSCULAR,ONCE,2022-02-07,2022-02-07
SYNTH-ONC-001,EX,SYNTH-ONC-001-0001,2,FULVESTRANT,500,mg,INTRAMUSCULAR,ONCE,2022-02-21,2022-02-21
SYNTH-ONC-001,EX,SYNTH-ONC-001-0001,3,FULVESTRANT,500,mg,INTRAMUSCULAR,ONCE,2022-03-07,2022-03-07
SYNTH-ONC-001,EX,SYNTH-ONC-001-0001,4,FULVESTRANT,500,mg,INTRAMUSCULAR,ONCE,2022-04-04,2022-04-04
SYNTH-ONC-001,EX,SYNTH-ONC-001-0001,5,FULVESTRANT,500,mg,INTRAMUSCULAR,ONCE,2022-05-02,2022-05-02
SYNTH-ONC-001,EX,SYNTH-ONC-001-0001,6,FULVESTRANT,500,mg,INTRAMUSCULAR,ONCE,2022-05-30,2022-05-30
SYNTH-ONC-001,EX,SYNTH-ONC-001-0001,7,FULVESTRANT,500,mg,INTRAMUSCULAR,ONCE,2022-06-27,2022-06-27
SYNTH-ONC-001,EX,SYNTH-ONC-001-0001,8,FULVESTRANT,500,mg,INTRAMUSCULAR,ONCE,2022-07-25,2022-07-25
SYNTH-ONC-001,EX,SYNTH-ONC-001-0001,9,FULVESTRANT,500,mg,INTRAMUSCULAR,ONCE,2022-08-22,2022-08-22
SYNTH-ONC-001,EX,SYNTH-ONC-001-0001,10,FULVESTRANT,500,mg,INTRAMUSCULAR,ONCE,2022-09-19,2022-09-19
SYNTH-ONC-001,EX,SYNTH-ONC-001-0001,11,FULVESTRANT,500,mg,INTRAMUSCULAR,ONCE,2022-10-17,2022-10-17
SYNTH-ONC-001,EX,SYNTH-ONC-001-0001,12,FULVESTRANT,500,mg,INTRAMUSCULAR,ONCE,2022-11-14,2022-11-14
SYNTH-ONC-001,EX,SYNTH-ONC-001-0001,13,FULVESTRANT,500,mg,INTRAMUSCULAR,ONCE,2022-12-12,2022-12-12
SYNTH-ONC-001,EX,SYNTH-ONC-001-0001,14,FULVESTRANT,500,mg,INTRAMUSCULAR,ONCE,2023-01-09,2023-01-09
SYNTH-ONC-001,EX,SYNTH-ONC-001-0001,15,FULVESTRANT,500,mg,INTRAMUSCULAR,ONCE,2023-02-06,2023-02-06
SYNTH-ONC-001,EX,SYNTH-ONC-001-0001,16,FULVESTRANT,500,mg,INTRAMUSCULAR,ONCE,2023-03-06,2023-03-06
SYNTH-ONC-001,EX,SYNTH-ONC-001-0001,17,FULVESTRANT,500,mg,INTRAMUSCULAR,ONCE,2023-04-03,2023-04-03
SYNTH-ONC-001,EX,SYNTH-ONC-001-0001,18,FULVESTRANT,500,mg,INTRAMUSCULAR,ONCE,2023-05-01,2023-05-01
SYNTH-ONC-001,EX,SYNTH-ONC-001-0001,19,FULVESTRANT,500,mg,INTRAMUSCULAR,ONCE,2023-05-29,2023-05-29
SYNTH-ONC-001,EX,SYNTH-ONC-001-0001,20,EVEROLIMUS,10,mg,ORAL,QD,2022-02-07,2023-06-16
SYNTH-ONC-001,EX,SYNTH-ONC-001-0002,1,FULVESTRANT,500,mg,INTRAMUSCULAR,ONCE,2022-09-30,2022-09-30
SYNTH-ONC-001,EX,SYNTH-ONC-001-0002,2,FULVESTRANT,500,mg,INTRAMUSCULAR,ONCE,2022-10-14,2022-10-14
SYNTH-ONC-001,EX,SYNTH-ONC-001-0002,3,FULVESTRANT,500,mg,INTRAMUSCULAR,ONCE,2022-10-28,2022-10-28
SYNTH-ONC-001,EX,SYNTH-ONC-001-0002,4,FULVESTRANT,500,mg,INTRAMUSCULAR,ONCE,2022-11-25,2022-11-25
SYNTH-ONC-001,EX,SYNTH-ONC-001-0002,5,FULVESTRANT,500,mg,INTRAMUSCULAR,ONCE,2022-12-23,2022-12-23
SYNTH-ONC-001,EX,SYNTH-ONC-001-0002,6,FULVESTRANT,500,mg,INTRAMUSCULAR,ONCE,2023-01-20,2023-01-20
SYNTH-ONC-001,EX,SYNTH-ONC-001-0002,7,FULVESTRANT,500,mg,INTRAMUSCULAR,ONCE,2023-02-17,2023-02-17
SYNTH-ONC-001,EX,SYNTH-ONC-001-0002,8,FULVESTRANT,500,mg,INTRAMUSCULAR,ONCE,2023-03-17,2023-03-17
SYNTH-ONC-001,EX,SYNTH-ONC-001-0002,9,FULVESTRANT,500,mg,INTRAMUSCULAR,ONCE,2023-04-14,2023-04-14
SYNTH-ONC-001,EX,SYNTH-ONC-001-0002,10,FULVESTRANT,500,mg,INTRAMUSCULAR,ONCE,2023-05-12,2023-05-12
SYNTH-ONC-001,EX,SYNTH-ONC-001-0002,11,FULVESTRANT,500,mg,INTRAMUSCULAR,ONCE,2023-06-09,2023-06-09
SYNTH-ONC-001,EX,SYNTH-ONC-001-0002,12,FULVESTRANT,500,mg,INTRAMUSCULAR,ONCE,2023-07-07,2023-07-07
SYNTH-ONC-001,EX,SYNTH-ONC-001-0002,13,FULVESTRANT,500,mg,INTRAMUSCULAR,ONCE,2023-08-04,2023-08-04
SYNTH-ONC-001,EX,SYNTH-ONC-001-0002,14,FULVESTRANT,500,mg,INTRAMUSCULAR,ONCE,2023-09-01,2023-09-01
SYNTH-ONC-001,EX,SYNTH-ONC-001-0002,15,FULVESTRANT,500,mg,INTRAMUSCULAR,ONCE,2023-09-29,2023-09-29
SYNTH-ONC-001,EX,SYNTH-ONC-001-0002,16,FULVESTRANT,500,mg,INTRAMUSCULAR,ONCE,2023-10-27,2023-10-27
SYNTH-ONC-001,EX,SYNTH-ONC-001-0002,17,FULVESTRANT,500,mg,INTRAMUSCULAR,ONCE,2023-11-24,2023-11-24
SYNTH-ONC-001,EX,SYNTH-ONC-001-0002,18,FULVESTRANT,500,mg,INTRAMUSCULAR,ONCE,2023-12-22,2023-12-22
SYNTH-ONC-001,EX,SYNTH-ONC-001-0002,19,FULVESTRANT,500,mg,INTRAMUSCULAR,ONCE,2024-01-19,2024-01-19
SYNTH-ONC-001,EX,SYNTH-ONC-001-0002,20,FULVESTRANT,500,mg,INTRAMUSCULAR,ONCE,2024-02-16,2024-02-16
SYNTH-ONC-001,EX,SYNTH-ONC-001-0002,21,FULVESTRANT,500,mg,INTRAMUSCULAR,ONCE,2024-03-15,2024-03-15
SYNTH-ONC-001,EX,SYNTH-ONC-001-0002,22,EVEROLIMUS,10,mg,ORAL,QD,2022-09-30,2024-03-30
SYNTH-ONC-001,EX,SYNTH-ONC-001-0003,1,FULVESTRANT,500,mg,INTRAMUSCULAR,ONCE,2021-05-10,2021-05-10
SYNTH-ONC-001,EX,SYNTH-ONC-001-0003,2,FULVESTRANT,500,mg,INTRAMUSCULAR,ONCE,2021-05-24,2021-05-24
SYNTH-ONC-001,EX,SYNTH-ONC-001-0003,3,FULVESTRANT,500,mg,INTRAMUSCULAR,ONCE,2021-06-07,2021-06-07
SYNTH-ONC-001,EX,SYNTH-ONC-001-0003,4,FULVESTRANT,500,mg,INTRAMUSCULAR,ONCE,2021-07-05,2021-07-05
SYNTH-ONC-001,EX,SYNTH-ONC-001-0003,5,FULVESTRANT,500,mg,INTRAMUSCULAR,ONCE,2021-08-02,2021-08-02
SYNTH-ONC-001,EX,SYNTH-ONC-001-0003,6,FULVESTRANT,500,mg,INTRAMUSCULAR,ONCE,2021-08-30,2021-08-30
SYNTH-ONC-001,EX,SYNTH-ONC-001-0003,7,FULVESTRANT,500,mg,INTRAMUSCULAR,ONCE,2021-09-27,2021-09-27
SYNTH-ONC-001,EX,SYNTH-ONC-001-0003,8,FULVESTRANT,500,mg,INTRAMUSCULAR,ONCE,2021-10-25,2021-10-25
SYNTH-ONC-001,EX,SYNTH-ONC-001-0003,9,FULVESTRANT,500,mg,INTRAMUSCULAR,ONCE,2021-11-22,2021-11-22
SYNTH-ONC-001,EX,SYNTH-ONC-001-0003,10,FULVESTRANT,500,mg,INTRAMUSCULAR,ONCE,2021-12-20,2021-12-20
SYNTH-ONC-001,EX,SYNTH-ONC-001-0003,11,FULVESTRANT,500,mg,INTRAMUSCULAR,ONCE,2022-01-17,2022-01-17
SYNTH-ONC-001,EX,SYNTH-ONC-001-0003,12,FULVESTRANT,500,mg,INTRAMUSCULAR,ONCE,2022-02-14,2022-02-14
SYNTH-ONC-001,EX,SYNTH-ONC-001-0003,13,FULVESTRANT,500,mg,INTRAMUSCULAR,ONCE,2022-03-14,2022-03-14
SYNTH-ONC-001,EX,SYNTH-ONC-001-0003,14,FULVESTRANT,500,mg,INTRAMUSCULAR,ONCE,2022-04-11,2022-04-11
SYNTH-ONC-001,EX,SYNTH-ONC-001-0003,15,FULVESTRANT,500,mg,INTRAMUSCULAR,ONCE,2022-05-09,2022-05-09
SYNTH-ONC-001,EX,SYNTH-ONC-001-0003,16,FULVESTRANT,500,mg,INTRAMUSCULAR,ONCE,2022-06-06,2022-06-06
SYNTH-ONC-001,EX,SYNTH-ONC-001-0003,17,EVEROLIMUS,10,mg,ORAL,QD,2021-05-10,2022-06-07
SYNTH-ONC-001,EX,SYNTH-ONC-001-0004,1,FULVESTRANT,500,mg,INTRAMUSCULAR,ONCE,2021-02-22,2021-02-22
SYNTH-ONC-001,EX,SYNTH-ONC-001-0004,2,FULVESTRANT,500,mg,INTRAMUSCULAR,ONCE,2021-03-08,2021-03-08
SYNTH-ONC-001,EX,SYNTH-ONC-001-0004,3,FULVESTRANT,500,mg,INTRAMUSCULAR,ONCE,2021-03-22,2021-03-22
SYNTH-ONC-001,EX,SYNTH-ONC-001-0004,4,FULVESTRANT,500,mg,INTRAMUSCULAR,ONCE,2021-04-19,2021-04-19
SYNTH-ONC-001,EX,SYNTH-ONC-001-0004,5,FULVESTRANT,500,mg,INTRAMUSCULAR,ONCE,2021-05-17,2021-05-17
SYNTH-ONC-001,EX,SYNTH-ONC-001-0004,6,FULVESTRANT,500,mg,INTRAMUSCULAR,ONCE,2021-06-14,2021-06-14
SYNTH-ONC-001,EX,SYNTH-ONC-001-0004,7,FULVESTRANT,500,mg,INTRAMUSCULAR,ONCE,2021-07-12,2021-07-12
SYNTH-ONC-001,EX,SYNTH-ONC-001-0004,8,FULVESTRANT,500,mg,INTRAMUSCULAR,ONCE,2021-08-09,2021-08-09
SYNTH-ONC-001,EX,SYNTH-ONC-001-0004,9,FULVESTRANT,500,mg,INTRAMUSCULAR,ONCE,2021-09-06,2021-09-06
SYNTH-ONC-001,EX,SYNTH-ONC-001-0004,10,FULVESTRANT,500,mg,INTRAMUSCULAR,ONCE,2021-10-04,2021-10-04
SYNTH-ONC-001,EX,SYNTH-ONC-001-0004,11,FULVESTRANT,500,mg,INTRAMUSCULAR,ONCE,2021-11-01,2021-11-01
SYNTH-ONC-001,EX,SYNTH-ONC-001-0004,12,FULVESTRANT,500,mg,INTRAMUSCULAR,ONCE,2021-11-29,2021-11-29
SYNTH-ONC-001,EX,SYNTH-ONC-001-0004,13,FULVESTRANT,500,mg,INTRAMUSCULAR,ONCE,2021-12-27,2021-12-27
SYNTH-ONC-001,EX,SYNTH-ONC-001-0004,14,FULVESTRANT,500,mg,INTRAMUSCULAR,ONCE,2022-01-24,2022-01-24
SYNTH-ONC-001,EX,SYNTH-ONC-001-0004,15,FULVESTRANT,500,mg,INTRAMUSCULAR,ONCE,2022-02-21,2022-02-21
SYNTH-ONC-001,EX,SYNTH-ONC-001-0004,16,FULVESTRANT,500,mg,INTRAMUSCULAR,ONCE,2022-03-21,2022-03-21
SYNTH-ONC-001,EX,SYNTH-ONC-001-0004,17,FULVESTRANT,500,mg,INTRAMUSCULAR,ONCE,2022-04-18,2022-04-18
SYNTH-ONC-001,EX,SYNTH-ONC-001-0004,18,FULVESTRANT,500,mg,INTRAMUSCULAR,ONCE,2022-05-16,2022-05-16
SYNTH-ONC-001,EX,SYNTH-ONC-001-0004,19,FULVESTRANT,500,mg,INTRAMUSCULAR,ONCE,2022-06-13,2022-06-13
SYNTH-ONC-001,EX,SYNTH-ONC-001-0004,20,FULVESTRANT,500,mg,INTRAMUSCULAR,ONCE,2022-07-11,2022-07-11
SYNTH-ONC-001,EX,SYNTH-ONC-001-0004,21,FULVESTRANT,500,mg,INTRAMUSCULAR,ONCE,2022-08-08,2022-08-08
SYNTH-ONC-001,EX,SYNTH-ONC-001-0004,22,FULVESTRANT,500,mg,INTRAMUSCULAR,ONCE,2022-09-05,2022-09-05
SYNTH-ONC-001,EX,SYNTH-ONC-001-0004,23,FULVESTRANT,500,mg,INTRAMUSCULAR,ONCE,2022-10-03,2022-10-03
SYNTH-ONC-001,EX,SYNTH-ONC-001-0004,24,PLACEBO,10,mg,ORAL,QD,2021-02-22,2022-10-04
SYNTH-ONC-001,EX,SYNTH-ONC-001-0005,1,FULVESTRANT,500,mg,INTRAMUSCULAR,ONCE,2022-11-15,2022-11-15
SYNTH-ONC-001,EX,SYNTH-ONC-001-0005,2,FULVESTRANT,500,mg,INTRAMUSCULAR,ONCE,2022-11-29,2022-11-29
SYNTH-ONC-001,EX,SYNTH-ONC-001-0005,3,FULVESTRANT,500,mg,INTRAMUSCULAR,ONCE,2022-12-13,2022-12-13
SYNTH-ONC-001,EX,SYNTH-ONC-001-0005,4,FULVESTRANT,500,mg,INTRAMUSCULAR,ONCE,2023-01-10,2023-01-10
SYNTH-ONC-001,EX,SYNTH-ONC-001-0005,5,FULVESTRANT,500,mg,INTRAMUSCULAR,ONCE,2023-02-07,2023-02-07
SYNTH-ONC-001,EX,SYNTH-ONC-001-0005,6,FULVESTRANT,500,mg,INTRAMUSCULAR,ONCE,2023-03-07,2023-03-07
SYNTH-ONC-001,EX,SYNTH-ONC-001-0005,7,FULVESTRANT,500,mg,INTRAMUSCULAR,ONCE,2023-04-04,2023-04-04
SYNTH-ONC-001,EX,SYNTH-ONC-001-0005,8,FULVESTRANT,500,mg,INTRAMUSCULAR,ONCE,2023-05-02,2023-05-02
SYNTH-ONC-001,EX,SYNTH-ONC-001-0005,9,FULVESTRANT,500,mg,INTRAMUSCULAR,ONCE,2023-05-30,2023-05-30
SYNTH-ONC-001,EX,SYNTH-ONC-001-0005,10,FULVESTRANT,500,mg,INTRAMUSCULAR,ONCE,2023-06-27,2023-06-27
SYNTH-ONC-001,EX,SYNTH-ONC-001-0005,11,FULVESTRANT,500,mg,INTRAMUSCULAR,ONCE,2023-07-25,2023-07-25
SYNTH-ONC-001,EX,SYNTH-ONC-001-0005,12,FULVESTRANT,500,mg,INTRAMUSCULAR,ONCE,2023-08-22,2023-08-22
SYNTH-ONC-001,EX,SYNTH-ONC-001-0005,13,FULVESTRANT,500,mg,INTRAMUSCULAR,ONCE,2023-09-19,2023-09-19
SYNTH-ONC-001,EX,SYNTH-ONC-001-0005,14,FULVESTRANT,500,mg,INTRAMUSCULAR,ONCE,2023-10-17,2023-10-17
SYNTH-ONC-001,EX,SYNTH-ONC-001-0005,15,FULVESTRANT,500,mg,INTRAMUSCULAR,ONCE,2023-11-14,2023-11-14
SYNTH-ONC-001,EX,SYNTH-ONC-001-0005,16,PLACEBO,10,mg,ORAL,QD,2022-11-15,2023-12-08
SYNTH-ONC-001,EX,SYNTH-ONC-001-0006,1,FULVESTRANT,500,mg,INTRAMUSCULAR,ONCE,2022-12-31,2022-12-31
SYNTH-ONC-001,EX,SYNTH-ONC-001-0006,2,FULVESTRANT,500,mg,INTRAMUSCULAR,ONCE,2023-01-14,2023-01-14
SYNTH-ONC-001,EX,SYNTH-ONC-001-0006,3,FULVESTRANT,500,mg,INTRAMUSCULAR,ONCE,2023-01-28,2023-01-28
SYNTH-ONC-001,EX,SYNTH-ONC-001-0006,4,FULVESTRANT,500,mg,INTRAMUSCULAR,ONCE,2023-02-25,2023-02-25
SYNTH-ONC-001,EX,SYNTH-ONC-001-0006,5,FULVESTRANT,500,mg,INTRAMUSCULAR,ONCE,2023-03-25,2023-03-25
SYNTH-ONC-001,EX,SYNTH-ONC-001-0006,6,FULVESTRANT,500,mg,INTRAMUSCULAR,ONCE,2023-04-22,2023-04-22
SYNTH-ONC-001,EX,SYNTH-ONC-001-0006,7,FULVESTRANT,500,mg,INTRAMUSCULAR,ONCE,2023-05-20,2023-05-20
SYNTH-ONC-001,EX,SYNTH-ONC-001-0006,8,FULVESTRANT,500,mg,INTRAMUSCULAR,ONCE,2023-06-17,2023-06-17
SYNTH-ONC-001,EX,SYNTH-ONC-001-0006,9,FULVESTRANT,500,mg,INTRAMUSCULAR,ONCE,2023-07-15,2023-07-15
SYNTH-ONC-001,EX,SYNTH-ONC-001-0006,10,FULVESTRANT,500,mg,INTRAMUSCULAR,ONCE,2023-08-12,2023-08-12
SYNTH-ONC-001,EX,SYNTH-ONC-001-0006,11,FULVESTRANT,500,mg,INTRAMUSCULAR,ONCE,2023-09-09,2023-09-09
SYNTH-ONC-001,EX,SYNTH-ONC-001-0006,12,FULVESTRANT,500,mg,INTRAMUSCULAR,ONCE,2023-10-07,2023-10-07
SYNTH-ONC-001,EX,SYNTH-ONC-001-0006,13,FULVESTRANT,500,mg,INTRAMUSCULAR,ONCE,2023-11-04,2023-11-04
SYNTH-ONC-001,EX,SYNTH-ONC-001-0006,14,FULVESTRANT,500,mg,INTRAMUSCULAR,ONCE,2023-12-02,2023-12-02
SYNTH-ONC-001,EX,SYNTH-ONC-001-0006,15,FULVESTRANT,500,mg,INTRAMUSCULAR,ONCE,2023-12-30,2023-12-30
SYNTH-ONC-001,EX,SYNTH-ONC-001-0006,16,FULVESTRANT,500,mg,INTRAMUSCULAR,ONCE,2024-01-27,2024-01-27
SYNTH-ONC-001,EX,SYNTH-ONC-001-0006,17,PLACEBO,10,mg,ORAL,QD,2022-12-31,2024-02-07
SYNTH-ONC-001,EX,SYNTH-ONC-001-0007,1,FULVESTRANT,500,mg,INTRAMUSCULAR,ONCE,2022-11-03,2022-11-03
SYNTH-ONC-001,EX,SYNTH-ONC-001-0007,2,FULVESTRANT,500,mg,INTRAMUSCULAR,ONCE,2022-11-17,2022-11-17
SYNTH-ONC-001,EX,SYNTH-ONC-001-0007,3,FULVESTRANT,500,mg,INTRAMUSCULAR,ONCE,2022-12-01,2022-12-01
SYNTH-ONC-001,EX,SYNTH-ONC-001-0007,4,FULVESTRANT,500,mg,INTRAMUSCULAR,ONCE,2022-12-29,2022-12-29
SYNTH-ONC-001,EX,SYNTH-ONC-001-0007,5,FULVESTRANT,500,mg,INTRAMUSCULAR,ONCE,2023-01-26,2023-01-26
SYNTH-ONC-001,EX,SYNTH-ONC-001-0007,6,FULVESTRANT,500,mg,INTRAMUSCULAR,ONCE,2023-02-23,2023-02-23
SYNTH-ONC-001,EX,SYNTH-ONC-001-0007,7,FULVESTRANT,500,mg,INTRAMUSCULAR,ONCE,2023-03-23,2023-03-23
SYNTH-ONC-001,EX,SYNTH-ONC-001-0007,8,FULVESTRANT,500,mg,INTRAMUSCULAR,ONCE,2023-04-20,2023-04-20
SYNTH-ONC-001,EX,SYNTH-ONC-001-0007,9,FULVESTRANT,500,mg,INTRAMUSCULAR,ONCE,2023-05-18,2023-05-18
SYNTH-ONC-001,EX,SYNTH-ONC-001-0007,10,FULVESTRANT,500,mg,INTRAMUSCULAR,ONCE,2023-06-15,2023-06-15
SYNTH-ONC-001,EX,SYNTH-ONC-001-0007,11,FULVESTRANT,500,mg,INTRAMUSCULAR,ONCE,2023-07-13,2023-07-13
SYNTH-ONC-001,EX,SYNTH-ONC-001-0007,12,FULVESTRANT,500,mg,INTRAMUSCULAR,ONCE,2023-08-10,2023-08-10
SYNTH-ONC-001,EX,SYNTH-ONC-001-0007,13,FULVESTRANT,500,mg,INTRAMUSCULAR,ONCE,2023-09-07,2023-09-07
SYNTH-ONC-001,EX,SYNTH-ONC-001-0007,14,FULVESTRANT,500,mg,INTRAMUSCULAR,ONCE,2023-10-05,2023-10-05
SYNTH-ONC-001,EX,SYNTH-ONC-001-0007,15,EVEROLIMUS,10,mg,ORAL,QD,2022-11-03,2023-10-28
SYNTH-ONC-001,EX,SYNTH-ONC-001-0008,1,FULVESTRANT,500,mg,INTRAMUSCULAR,ONCE,2022-12-11,2022-12-11
SYNTH-ONC-001,EX,SYNTH-ONC-001-0008,2,FULVESTRANT,500,mg,INTRAMUSCULAR,ONCE,2022-12-25,2022-12-25
SYNTH-ONC-001,EX,SYNTH-ONC-001-0008,3,FULVESTRANT,500,mg,INTRAMUSCULAR,ONCE,2023-01-08,2023-01-08
SYNTH-ONC-001,EX,SYNTH-ONC-001-0008,4,FULVESTRANT,500,mg,INTRAMUSCULAR,ONCE,2023-02-05,2023-02-05
SYNTH-ONC-001,EX,SYNTH-ONC-001-0008,5,FULVESTRANT,500,mg,INTRAMUSCULAR,ONCE,2023-03-05,2023-03-05
SYNTH-ONC-001,EX,SYNTH-ONC-001-0008,6,PLACEBO,10,mg,ORAL,QD,2022-12-11,2023-03-30
SYNTH-ONC-001,EX,SYNTH-ONC-001-0009,1,FULVESTRANT,500,mg,INTRAMUSCULAR,ONCE,2022-02-20,2022-02-20
SYNTH-ONC-001,EX,SYNTH-ONC-001-0009,2,FULVESTRANT,500,mg,INTRAMUSCULAR,ONCE,2022-03-06,2022-03-06
SYNTH-ONC-001,EX,SYNTH-ONC-001-0009,3,FULVESTRANT,500,mg,INTRAMUSCULAR,ONCE,2022-03-20,2022-03-20
SYNTH-ONC-001,EX,SYNTH-ONC-001-0009,4,FULVESTRANT,500,mg,INTRAMUSCULAR,ONCE,2022-04-17,2022-04-17
SYNTH-ONC-001,EX,SYNTH-ONC-001-0009,5,FULVESTRANT,500,mg,INTRAMUSCULAR,ONCE,2022-05-15,2022-05-15
SYNTH-ONC-001,EX,SYNTH-ONC-001-0009,6,FULVESTRANT,500,mg,INTRAMUSCULAR,ONCE,2022-06-12,2022-06-12
SYNTH-ONC-001,EX,SYNTH-ONC-001-0009,7,FULVESTRANT,500,mg,INTRAMUSCULAR,ONCE,2022-07-10,2022-07-10
SYNTH-ONC-001,EX,SYNTH-ONC-001-0009,8,FULVESTRANT,500,mg,INTRAMUSCULAR,ONCE,2022-08-07,2022-08-07
SYNTH-ONC-001,EX,SYNTH-ONC-001-0009,9,FULVESTRANT,500,mg,INTRAMUSCULAR,ONCE,2022-09-04,2022-09-04
SYNTH-ONC-001,EX,SYNTH-ONC-001-0009,10,FULVESTRANT,500,mg,INTRAMUSCULAR,ONCE,2022-10-02,2022-10-02
SYNTH-ONC-001,EX,SYNTH-ONC-001-0009,11,FULVESTRANT,500,mg,INTRAMUSCULAR,ONCE,2022-10-30,2022-10-30
SYNTH-ONC-001,EX,SYNTH-ONC-001-0009,12,FULVESTRANT,500,mg,INTRAMUSCULAR,ONCE,2022-11-27,2022-11-27
SYNTH-ONC-001,EX,SYNTH-ONC-001-0009,13,FULVESTRANT,500,mg,INTRAMUSCULAR,ONCE,2022-12-25,2022-12-25
SYNTH-ONC-001,EX,SYNTH-ONC-001-0009,14,FULVESTRANT,500,mg,INTRAMUSCULAR,ONCE,2023-01-22,2023-01-22
SYNTH-ONC-001,EX,SYNTH-ONC-001-0009,15,FULVESTRANT,500,mg,INTRAMUSCULAR,ONCE,2023-02-19,2023-02-19
SYNTH-ONC-001,EX,SYNTH-ONC-001-0009,16,FULVESTRANT,500,mg,INTRAMUSCULAR,ONCE,2023-03-19,2023-03-19
SYNTH-ONC-001,EX,SYNTH-ONC-001-0009,17,FULVESTRANT,500,mg,INTRAMUSCULAR,ONCE,2023-04-16,2023-04-16
SYNTH-ONC-001,EX,SYNTH-ONC-001-0009,18,FULVESTRANT,500,mg,INTRAMUSCULAR,ONCE,2023-05-14,2023-05-14
SYNTH-ONC-001,EX,SYNTH-ONC-001-0009,19,PLACEBO,10,mg,ORAL,QD,2022-02-20,2023-05-18
SYNTH-ONC-001,EX,SYNTH-ONC-001-0010,1,FULVESTRANT,500,mg,INTRAMUSCULAR,ONCE,2021-09-04,2021-09-04
SYNTH-ONC-001,EX,SYNTH-ONC-001-0010,2,FULVESTRANT,500,mg,INTRAMUSCULAR,ONCE,2021-09-18,2021-09-18
SYNTH-ONC-001,EX,SYNTH-ONC-001-0010,3,FULVESTRANT,500,mg,INTRAMUSCULAR,ONCE,2021-10-02,2021-10-02
SYNTH-ONC-001,EX,SYNTH-ONC-001-0010,4,FULVESTRANT,500,mg,INTRAMUSCULAR,ONCE,2021-10-30,2021-10-30
SYNTH-ONC-001,EX,SYNTH-ONC-001-0010,5,FULVESTRANT,500,mg,INTRAMUSCULAR,ONCE,2021-11-27,2021-11-27
SYNTH-ONC-001,EX,SYNTH-ONC-001-0010,6,FULVESTRANT,500,mg,INTRAMUSCULAR,ONCE,2021-12-25,2021-12-25
SYNTH-ONC-001,EX,SYNTH-ONC-001-0010,7,FULVESTRANT,500,mg,INTRAMUSCULAR,ONCE,2022-01-22,2022-01-22
SYNTH-ONC-001,EX,SYNTH-ONC-001-0010,8,FULVESTRANT,500,mg,INTRAMUSCULAR,ONCE,2022-02-19,2022-02-19
SYNTH-ONC-001,EX,SYNTH-ONC-001-0010,9,FULVESTRANT,500,mg,INTRAMUSCULAR,ONCE,2022-03-19,2022-03-19
SYNTH-ONC-001,EX,SYNTH-ONC-001-0010,10,FULVESTRANT,500,mg,INTRAMUSCULAR,ONCE,2022-04-16,2022-04-16
SYNTH-ONC-001,EX,SYNTH-ONC-001-0010,11,FULVESTRANT,500,mg,INTRAMUSCULAR,ONCE,2022-05-14,2022-05-14
SYNTH-ONC-001,EX,SYNTH-ONC-001-0010,12,FULVESTRANT,500,mg,INTRAMUSCULAR,ONCE,2022-06-11,2022-06-11
SYNTH-ONC-001,EX,SYNTH-ONC-001-0010,13,FULVESTRANT,500,mg,INTRAMUSCULAR,ONCE,2022-07-09,2022-07-09
SYNTH-ONC-001,EX,SYNTH-ONC-001-0010,14,FULVESTRANT,500,mg,INTRAMUSCULAR,ONCE,2022-08-06,2022-08-06
SYNTH-ONC-001,EX,SYNTH-ONC-001-0010,15,EVEROLIMUS,10,mg,ORAL,QD,2021-09-04,2022-08-25
SYNTH-ONC-001,EX,SYNTH-ONC-001-0011,1,FULVESTRANT,500,mg,INTRAMUSCULAR,ONCE,2022-03-15,2022-03-15
SYNTH-ONC-001,EX,SYNTH-ONC-001-0011,2,FULVESTRANT,500,mg,INTRAMUSCULAR,ONCE,2022-03-29,2022-03-29
SYNTH-ONC-001,EX,SYNTH-ONC-001-0011,3,FULVESTRANT,500,mg,INTRAMUSCULAR,ONCE,2022-04-12,2022-04-12
SYNTH-ONC-001,EX,SYNTH-ONC-001-0011,4,FULVESTRANT,500,mg,INTRAMUSCULAR,ONCE,2022-05-10,2022-05-10
SYNTH-ONC-001,EX,SYNTH-ONC-001-0011,5,FULVESTRANT,500,mg,INTRAMUSCULAR,ONCE,2022-06-07,2022-06-07
SYNTH-ONC-001,EX,SYNTH-ONC-001-0011,6,FULVESTRANT,500,mg,INTRAMUSCULAR,ONCE,2022-07-05,2022-07-05
SYNTH-ONC-001,EX,SYNTH-ONC-001-0011,7,FULVESTRANT,500,mg,INTRAMUSCULAR,ONCE,2022-08-02,2022-08-02
SYNTH-ONC-001,EX,SYNTH-ONC-001-0011,8,FULVESTRANT,500,mg,INTRAMUSCULAR,ONCE,2022-08-30,2022-08-30
SYNTH-ONC-001,EX,SYNTH-ONC-001-0011,9,FULVESTRANT,500,mg,INTRAMUSCULAR,ONCE,2022-09-27,2022-09-27
SYNTH-ONC-001,EX,SYNTH-ONC-001-0011,10,FULVESTRANT,500,mg,INTRAMUSCULAR,ONCE,2022-10-25,2022-10-25
SYNTH-ONC-001,EX,SYNTH-ONC-001-0011,11,FULVESTRANT,500,mg,INTRAMUSCULAR,ONCE,2022-11-22,2022-11-22
SYNTH-ONC-001,EX,SYNTH-ONC-001-0011,12,FULVESTRANT,500,mg,INTRAMUSCULAR,ONCE,2022-12-20,2022-12-20
SYNTH-ONC-001,EX,SYNTH-ONC-001-0011,13,EVEROLIMUS,10,mg,ORAL,QD,2022-03-15,2023-01-12
SYNTH-ONC-001,EX,SYNTH-ONC-001-0012,1,FULVESTRANT,500,mg,INTRAMUSCULAR,ONCE,2021-07-22,2021-07-22
SYNTH-ONC-001,EX,SYNTH-ONC-001-0012,2,FULVESTRANT,500,mg,INTRAMUSCULAR,ONCE,2021-08-05,2021-08-05
SYNTH-ONC-001,EX,SYNTH-ONC-001-0012,3,FULVESTRANT,500,mg,INTRAMUSCULAR,ONCE,2021-08-19,2021-08-19
SYNTH-ONC-001,EX,SYNTH-ONC-001-0012,4,FULVESTRANT,500,mg,INTRAMUSCULAR,ONCE,2021-09-16,2021-09-16
SYNTH-ONC-001,EX,SYNTH-ONC-001-0012,5,FULVESTRANT,500,mg,INTRAMUSCULAR,ONCE,2021-10-14,2021-10-14
SYNTH-ONC-001,EX,SYNTH-ONC-001-0012,6,FULVESTRANT,500,mg,INTRAMUSCULAR,ONCE,2021-11-11,2021-11-11
SYNTH-ONC-001,EX,SYNTH-ONC-001-0012,7,FULVESTRANT,500,mg,INTRAMUSCULAR,ONCE,2021-12-09,2021-12-09
SYNTH-ONC-001,EX,SYNTH-ONC-001-0012,8,FULVESTRANT,500,mg,INTRAMUSCULAR,ONCE,2022-01-06,2022-01-06
SYNTH-ONC-001,EX,SYNTH-ONC-001-0012,9,FULVESTRANT,500,mg,INTRAMUSCULAR,ONCE,2022-02-03,2022-02-03
SYNTH-ONC-001,EX,SYNTH-ONC-001-0012,10,FULVESTRANT,500,mg,INTRAMUSCULAR,ONCE,2022-03-03,2022-03-03
SYNTH-ONC-001,EX,SYNTH-ONC-001-0012,11,FULVESTRANT,500,mg,INTRAMUSCULAR,ONCE,2022-03-31,2022-03-31
SYNTH-ONC-001,EX,SYNTH-ONC-001-0012,12,FULVESTRANT,500,mg,INTRAMUSCULAR,ONCE,2022-04-28,2022-04-28
SYNTH-ONC-001,EX,SYNTH-ONC-001-0012,13,FULVESTRANT,500,mg,INTRAMUSCULAR,ONCE,2022-05-26,2022-05-26
SYNTH-ONC-001,EX,SYNTH-ONC-001-0012,14,FULVESTRANT,500,mg,INTRAMUSCULAR,ONCE,2022-06-23,2022-06-23
SYNTH-ONC-001,EX,SYNTH-ONC-001-0012,15,FULVESTRANT,500,mg,INTRAMUSCULAR,ONCE,2022-07-21,2022-07-21
SYNTH-ONC-001,EX,SYNTH-ONC-001-0012,16,FULVESTRANT,500,mg,INTRAMUSCULAR,ONCE,2022-08-18,2022-08-18
SYNTH-ONC-001,EX,SYNTH-ONC-001-0012,17,FULVESTRANT,500,mg,INTRAMUSCULAR,ONCE,2022-09-15,2022-09-15
SYNTH-ONC-001,EX,SYNTH-ONC-001-0012,18,FULVESTRANT,500,mg,INTRAMUSCULAR,ONCE,2022-10-13,2022-10-13
SYNTH-ONC-001,EX,SYNTH-ONC-001-0012,19,FULVESTRANT,500,mg,INTRAMUSCULAR,ONCE,2022-11-10,2022-11-10
SYNTH-ONC-001,EX,SYNTH-ONC-001-0012,20,FULVESTRANT,500,mg,INTRAMUSCULAR,ONCE,2022-12-08,2022-12-08
SYNTH-ONC-001,EX,SYNTH-ONC-001-0012,21,FULVESTRANT,500,mg,INTRAMUSCULAR,ONCE,2023-01-05,2023-01-05
SYNTH-ONC-001,EX,SYNTH-ONC-001-0012,22,PLACEBO,10,mg,ORAL,QD,2021-07-22,2023-01-24
SYNTH-ONC-001,EX,SYNTH-ONC-001-0013,1,FULVESTRANT,500,mg,INTRAMUSCULAR,ONCE,2021-07-03,2021-07-03
SYNTH-ONC-001,EX,SYNTH-ONC-001-0013,2,FULVESTRANT,500,mg,INTRAMUSCULAR,ONCE,2021-07-17,2021-07-17
SYNTH-ONC-001,EX,SYNTH-ONC-001-0013,3,FULVESTRANT,500,mg,INTRAMUSCULAR,ONCE,2021-07-31,2021-07-31
SYNTH-ONC-001,EX,SYNTH-ONC-001-0013,4,FULVESTRANT,500,mg,INTRAMUSCULAR,ONCE,2021-08-28,2021-08-28
SYNTH-ONC-001,EX,SYNTH-ONC-001-0013,5,FULVESTRANT,500,mg,INTRAMUSCULAR,ONCE,2021-09-25,2021-09-25
SYNTH-ONC-001,EX,SYNTH-ONC-001-0013,6,FULVESTRANT,500,mg,INTRAMUSCULAR,ONCE,2021-10-23,2021-10-23
SYNTH-ONC-001,EX,SYNTH-ONC-001-0013,7,FULVESTRANT,500,mg,INTRAMUSCULAR,ONCE,2021-11-20,2021-11-20
SYNTH-ONC-001,EX,SYNTH-ONC-001-0013,8,FULVESTRANT,500,mg,INTRAMUSCULAR,ONCE,2021-12-18,2021-12-18
SYNTH-ONC-001,EX,SYNTH-ONC-001-0013,9,FULVESTRANT,500,mg,INTRAMUSCULAR,ONCE,2022-01-15,2022-01-15
SYNTH-ONC-001,EX,SYNTH-ONC-001-0013,10,PLACEBO,10,mg,ORAL,QD,2021-07-03,2022-02-08
SYNTH-ONC-001,EX,SYNTH-ONC-001-0014,1,FULVESTRANT,500,mg,INTRAMUSCULAR,ONCE,2021-05-03,2021-05-03
SYNTH-ONC-001,EX,SYNTH-ONC-001-0014,2,FULVESTRANT,500,mg,INTRAMUSCULAR,ONCE,2021-05-17,2021-05-17
SYNTH-ONC-001,EX,SYNTH-ONC-001-0014,3,FULVESTRANT,500,mg,INTRAMUSCULAR,ONCE,2021-05-31,2021-05-31
SYNTH-ONC-001,EX,SYNTH-ONC-001-0014,4,FULVESTRANT,500,mg,INTRAMUSCULAR,ONCE,2021-06-28,2021-06-28
SYNTH-ONC-001,EX,SYNTH-ONC-001-0014,5,FULVESTRANT,500,mg,INTRAMUSCULAR,ONCE,2021-07-26,2021-07-26
SYNTH-ONC-001,EX,SYNTH-ONC-001-0014,6,FULVESTRANT,500,mg,INTRAMUSCULAR,ONCE,2021-08-23,2021-08-23
SYNTH-ONC-001,EX,SYNTH-ONC-001-0014,7,FULVESTRANT,500,mg,INTRAMUSCULAR,ONCE,2021-09-20,2021-09-20
SYNTH-ONC-001,EX,SYNTH-ONC-001-0014,8,FULVESTRANT,500,mg,INTRAMUSCULAR,ONCE,2021-10-18,2021-10-18
SYNTH-ONC-001,EX,SYNTH-ONC-001-0014,9,FULVESTRANT,500,mg,INTRAMUSCULAR,ONCE,2021-11-15,2021-11-15
SYNTH-ONC-001,EX,SYNTH-ONC-001-0014,10,FULVESTRANT,500,mg,INTRAMUSCULAR,ONCE,2021-12-13,2021-12-13
SYNTH-ONC-001,EX,SYNTH-ONC-001-0014,11,FULVESTRANT,500,mg,INTRAMUSCULAR,ONCE,2022-01-10,2022-01-10
SYNTH-ONC-001,EX,SYNTH-ONC-001-0014,12,FULVESTRANT,500,mg,INTRAMUSCULAR,ONCE,2022-02-07,2022-02-07
SYNTH-ONC-001,EX,SYNTH-ONC-001-0014,13,FULVESTRANT,500,mg,INTRAMUSCULAR,ONCE,2022-03-07,2022-03-07
SYNTH-ONC-001,EX,SYNTH-ONC-001-0014,14,FULVESTRANT,500,mg,INTRAMUSCULAR,ONCE,2022-04-04,2022-04-04
SYNTH-ONC-001,EX,SYNTH-ONC-001-0014,15,EVEROLIMUS,10,mg,ORAL,QD,2021-05-03,2022-04-10
SYNTH-ONC-001,EX,SYNTH-ONC-001-0015,1,FULVESTRANT,500,mg,INTRAMUSCULAR,ONCE,2022-02-05,2022-02-05
SYNTH-ONC-001,EX,SYNTH-ONC-001-0015,2,FULVESTRANT,500,mg,INTRAMUSCULAR,ONCE,2022-02-19,2022-02-19
SYNTH-ONC-001,EX,SYNTH-ONC-001-0015,3,FULVESTRANT,500,mg,INTRAMUSCULAR,ONCE,2022-03-05,2022-03-05
SYNTH-ONC-001,EX,SYNTH-ONC-001-0015,4,FULVESTRANT,500,mg,INTRAMUSCULAR,ONCE,2022-04-02,2022-04-02
SYNTH-ONC-001,EX,SYNTH-ONC-001-0015,5,FULVESTRANT,500,mg,INTRAMUSCULAR,ONCE,2022-04-30,2022-04-30
SYNTH-ONC-001,EX,SYNTH-ONC-001-0015,6,FULVESTRANT,500,mg,INTRAMUSCULAR,ONCE,2022-05-28,2022-05-28
SYNTH-ONC-001,EX,SYNTH-ONC-001-0015,7,FULVESTRANT,500,mg,INTRAMUSCULAR,ONCE,2022-06-25,2022-06-25
SYNTH-ONC-001,EX,SYNTH-ONC-001-0015,8,FULVESTRANT,500,mg,INTRAMUSCULAR,ONCE,2022-07-23,2022-07-23
SYNTH-ONC-001,EX,SYNTH-ONC-001-0015,9,FULVESTRANT,500,mg,INTRAMUSCULAR,ONCE,2022-08-20,2022-08-20
SYNTH-ONC-001,EX,SYNTH-ONC-001-0015,10,FULVESTRANT,500,mg,INTRAMUSCULAR,ONCE,2022-09-17,2022-09-17
SYNTH-ONC-001,EX,SYNTH-ONC-001-0015,11,FULVESTRANT,500,mg,INTRAMUSCULAR,ONCE,2022-10-15,2022-10-15
SYNTH-ONC-001,EX,SYNTH-ONC-001-0015,12,FULVESTRANT,500,mg,INTRAMUSCULAR,ONCE,2022-11-12,2022-11-12
SYNTH-ONC-001,EX,SYNTH-ONC-001-0015,13,FULVESTRANT,500,mg,INTRAMUSCULAR,ONCE,2022-12-10,2022-12-10
SYNTH-ONC-001,EX,SYNTH-ONC-001-0015,14,FULVESTRANT,500,mg,INTRAMUSCULAR,ONCE,2023-01-07,2023-01-07
SYNTH-ONC-001,EX,SYNTH-ONC-001-0015,15,FULVESTRANT,500,mg,INTRAMUSCULAR,ONCE,2023-02-04,2023-02-04
SYNTH-ONC-001,EX,SYNTH-ONC-001-0015,16,FULVESTRANT,500,mg,INTRAMUSCULAR,ONCE,2023-03-04,2023-03-04
SYNTH-ONC-001,EX,SYNTH-ONC-001-0015,17,FULVESTRANT,500,mg,INTRAMUSCULAR,ONCE,2023-04-01,2023-04-01
SYNTH-ONC-001,EX,SYNTH-ONC-001-0015,18,PLACEBO,10,mg,ORAL,QD,2022-02-05,2023-04-17
SYNTH-ONC-001,EX,SYNTH-ONC-001-0016,1,FULVESTRANT,500,mg,INTRAMUSCULAR,ONCE,2021-10-21,2021-10-21
SYNTH-ONC-001,EX,SYNTH-ONC-001-0016,2,FULVESTRANT,500,mg,INTRAMUSCULAR,ONCE,2021-11-04,2021-11-04
SYNTH-ONC-001,EX,SYNTH-ONC-001-0016,3,FULVESTRANT,500,mg,INTRAMUSCULAR,ONCE,2021-11-18,2021-11-18
SYNTH-ONC-001,EX,SYNTH-ONC-001-0016,4,FULVESTRANT,500,mg,INTRAMUSCULAR,ONCE,2021-12-16,2021-12-16
SYNTH-ONC-001,EX,SYNTH-ONC-001-0016,5,FULVESTRANT,500,mg,INTRAMUSCULAR,ONCE,2022-01-13,2022-01-13
SYNTH-ONC-001,EX,SYNTH-ONC-001-0016,6,FULVESTRANT,500,mg,INTRAMUSCULAR,ONCE,2022-02-10,2022-02-10
SYNTH-ONC-001,EX,SYNTH-ONC-001-0016,7,FULVESTRANT,500,mg,INTRAMUSCULAR,ONCE,2022-03-10,2022-03-10
SYNTH-ONC-001,EX,SYNTH-ONC-001-0016,8,FULVESTRANT,500,mg,INTRAMUSCULAR,ONCE,2022-04-07,2022-04-07
SYNTH-ONC-001,EX,SYNTH-ONC-001-0016,9,FULVESTRANT,500,mg,INTRAMUSCULAR,ONCE,2022-05-05,2022-05-05
SYNTH-ONC-001,EX,SYNTH-ONC-001-0016,10,FULVESTRANT,500,mg,INTRAMUSCULAR,ONCE,2022-06-02,2022-06-02
SYNTH-ONC-001,EX,SYNTH-ONC-001-0016,11,FULVESTRANT,500,mg,INTRAMUSCULAR,ONCE,2022-06-30,2022-06-30
SYNTH-ONC-001,EX,SYNTH-ONC-001-0016,12,FULVESTRANT,500,mg,INTRAMUSCULAR,ONCE,2022-07-28,2022-07-28
SYNTH-ONC-001,EX,SYNTH-ONC-001-0016,13,FULVESTRANT,500,mg,INTRAMUSCULAR,ONCE,2022-08-25,2022-08-25
SYNTH-ONC-001,EX,SYNTH-ONC-001-0016,14,FULVESTRANT,500,mg,INTRAMUSCULAR,ONCE,2022-09-22,2022-09-22
SYNTH-ONC-001,EX,SYNTH-ONC-001-0016,15,FULVESTRANT,500,mg,INTRAMUSCULAR,ONCE,2022-10-20,2022-10-20
SYNTH-ONC-001,EX,SYNTH-ONC-001-0016,16,FULVESTRANT,500,mg,INTRAMUSCULAR,ONCE,2022-11-17,2022-11-17
SYNTH-ONC-001,EX,SYNTH-ONC-001-0016,17,FULVESTRANT,500,mg,INTRAMUSCULAR,ONCE,2022-12-15,2022-12-15
SYNTH-ONC-001,EX,SYNTH-ONC-001-0016,18,FULVESTRANT,500,mg,INTRAMUSCULAR,ONCE,2023-01-12,2023-01-12
SYNTH-ONC-001,EX,SYNTH-ONC-001-0016,19,FULVESTRANT,500,mg,INTRAMUSCULAR,ONCE,2023-02-09,2023-02-09
SYNTH-ONC-001,EX,SYNTH-ONC-001-0016,20,PLACEBO,10,mg,ORAL,QD,2021-10-21,2023-02-23
SYNTH-ONC-001,EX,SYNTH-ONC-001-0017,1,FULVESTRANT,500,mg,INTRAMUSCULAR,ONCE,2021-10-07,2021-10-07
SYNTH-ONC-001,EX,SYNTH-ONC-001-0017,2,FULVESTRANT,500,mg,INTRAMUSCULAR,ONCE,2021-10-21,2021-10-21
SYNTH-ONC-001,EX,SYNTH-ONC-001-0017,3,FULVESTRANT,500,mg,INTRAMUSCULAR,ONCE,2021-11-04,2021-11-04
SYNTH-ONC-001,EX,SYNTH-ONC-001-0017,4,FULVESTRANT,500,mg,INTRAMUSCULAR,ONCE,2021-12-02,2021-12-02
SYNTH-ONC-001,EX,SYNTH-ONC-001-0017,5,FULVESTRANT,500,mg,INTRAMUSCULAR,ONCE,2021-12-30,2021-12-30
SYNTH-ONC-001,EX,SYNTH-ONC-001-0017,6,FULVESTRANT,500,mg,INTRAMUSCULAR,ONCE,2022-01-27,2022-01-27
SYNTH-ONC-001,EX,SYNTH-ONC-001-0017,7,FULVESTRANT,500,mg,INTRAMUSCULAR,ONCE,2022-02-24,2022-02-24
SYNTH-ONC-001,EX,SYNTH-ONC-001-0017,8,FULVESTRANT,500,mg,INTRAMUSCULAR,ONCE,2022-03-24,2022-03-24
SYNTH-ONC-001,EX,SYNTH-ONC-001-0017,9,FULVESTRANT,500,mg,INTRAMUSCULAR,ONCE,2022-04-21,2022-04-21
SYNTH-ONC-001,EX,SYNTH-ONC-001-0017,10,FULVESTRANT,500,mg,INTRAMUSCULAR,ONCE,2022-05-19,2022-05-19
SYNTH-ONC-001,EX,SYNTH-ONC-001-0017,11,FULVESTRANT,500,mg,INTRAMUSCULAR,ONCE,2022-06-16,2022-06-16
SYNTH-ONC-001,EX,SYNTH-ONC-001-0017,12,FULVESTRANT,500,mg,INTRAMUSCULAR,ONCE,2022-07-14,2022-07-14
SYNTH-ONC-001,EX,SYNTH-ONC-001-0017,13,FULVESTRANT,500,mg,INTRAMUSCULAR,ONCE,2022-08-11,2022-08-11
SYNTH-ONC-001,EX,SYNTH-ONC-001-0017,14,EVEROLIMUS,10,mg,ORAL,QD,2021-10-07,2022-08-11
SYNTH-ONC-001,EX,SYNTH-ONC-001-0018,1,FULVESTRANT,500,mg,INTRAMUSCULAR,ONCE,2022-09-02,2022-09-02
SYNTH-ONC-001,EX,SYNTH-ONC-001-0018,2,FULVESTRANT,500,mg,INTRAMUSCULAR,ONCE,2022-09-16,2022-09-16
SYNTH-ONC-001,EX,SYNTH-ONC-001-0018,3,FULVESTRANT,500,mg,INTRAMUSCULAR,ONCE,2022-09-30,2022-09-30
SYNTH-ONC-001,EX,SYNTH-ONC-001-0018,4,FULVESTRANT,500,mg,INTRAMUSCULAR,ONCE,2022-10-28,2022-10-28
SYNTH-ONC-001,EX,SYNTH-ONC-001-0018,5,FULVESTRANT,500,mg,INTRAMUSCULAR,ONCE,2022-11-25,2022-11-25
SYNTH-ONC-001,EX,SYNTH-ONC-001-0018,6,FULVESTRANT,500,mg,INTRAMUSCULAR,ONCE,2022-12-23,2022-12-23
SYNTH-ONC-001,EX,SYNTH-ONC-001-0018,7,FULVESTRANT,500,mg,INTRAMUSCULAR,ONCE,2023-01-20,2023-01-20
SYNTH-ONC-001,EX,SYNTH-ONC-001-0018,8,FULVESTRANT,500,mg,INTRAMUSCULAR,ONCE,2023-02-17,2023-02-17
SYNTH-ONC-001,EX,SYNTH-ONC-001-0018,9,FULVESTRANT,500,mg,INTRAMUSCULAR,ONCE,2023-03-17,2023-03-17
SYNTH-ONC-001,EX,SYNTH-ONC-001-0018,10,FULVESTRANT,500,mg,INTRAMUSCULAR,ONCE,2023-04-14,2023-04-14
SYNTH-ONC-001,EX,SYNTH-ONC-001-0018,11,FULVESTRANT,500,mg,INTRAMUSCULAR,ONCE,2023-05-12,2023-05-12
SYNTH-ONC-001,EX,SYNTH-ONC-001-0018,12,FULVESTRANT,500,mg,INTRAMUSCULAR,ONCE,2023-06-09,2023-06-09
SYNTH-ONC-001,EX,SYNTH-ONC-001-0018,13,FULVESTRANT,500,mg,INTRAMUSCULAR,ONCE,2023-07-07,2023-07-07
SYNTH-ONC-001,EX,SYNTH-ONC-001-0018,14,FULVESTRANT,500,mg,INTRAMUSCULAR,ONCE,2023-08-04,2023-08-04
SYNTH-ONC-001,EX,SYNTH-ONC-001-0018,15,FULVESTRANT,500,mg,INTRAMUSCULAR,ONCE,2023-09-01,2023-09-01
SYNTH-ONC-001,EX,SYNTH-ONC-001-0018,16,FULVESTRANT,500,mg,INTRAMUSCULAR,ONCE,2023-09-29,2023-09-29
SYNTH-ONC-001,EX,SYNTH-ONC-001-0018,17,FULVESTRANT,500,mg,INTRAMUSCULAR,ONCE,2023-10-27,2023-10-27
SYNTH-ONC-001,EX,SYNTH-ONC-001-0018,18,FULVESTRANT,500,mg,INTRAMUSCULAR,ONCE,2023-11-24,2023-11-24
SYNTH-ONC-001,EX,SYNTH-ONC-001-0018,19,FULVESTRANT,500,mg,INTRAMUSCULAR,ONCE,2023-12-22,2023-12-22
SYNTH-ONC-001,EX,SYNTH-ONC-001-0018,20,FULVESTRANT,500,mg,INTRAMUSCULAR,ONCE,2024-01-19,2024-01-19
SYNTH-ONC-001,EX,SYNTH-ONC-001-0018,21,PLACEBO,10,mg,ORAL,QD,2022-09-02,2024-01-29
SYNTH-ONC-001,EX,SYNTH-ONC-001-0019,1,FULVESTRANT,500,mg,INTRAMUSCULAR,ONCE,2021-07-17,2021-07-17
SYNTH-ONC-001,EX,SYNTH-ONC-001-0019,2,FULVESTRANT,500,mg,INTRAMUSCULAR,ONCE,2021-07-31,2021-07-31
SYNTH-ONC-001,EX,SYNTH-ONC-001-0019,3,FULVESTRANT,500,mg,INTRAMUSCULAR,ONCE,2021-08-14,2021-08-14
SYNTH-ONC-001,EX,SYNTH-ONC-001-0019,4,FULVESTRANT,500,mg,INTRAMUSCULAR,ONCE,2021-09-11,2021-09-11
SYNTH-ONC-001,EX,SYNTH-ONC-001-0019,5,FULVESTRANT,500,mg,INTRAMUSCULAR,ONCE,2021-10-09,2021-10-09
SYNTH-ONC-001,EX,SYNTH-ONC-001-0019,6,FULVESTRANT,500,mg,INTRAMUSCULAR,ONCE,2021-11-06,2021-11-06
SYNTH-ONC-001,EX,SYNTH-ONC-001-0019,7,FULVESTRANT,500,mg,INTRAMUSCULAR,ONCE,2021-12-04,2021-12-04
SYNTH-ONC-001,EX,SYNTH-ONC-001-0019,8,FULVESTRANT,500,mg,INTRAMUSCULAR,ONCE,2022-01-01,2022-01-01
SYNTH-ONC-001,EX,SYNTH-ONC-001-0019,9,FULVESTRANT,500,mg,INTRAMUSCULAR,ONCE,2022-01-29,2022-01-29
SYNTH-ONC-001,EX,SYNTH-ONC-001-0019,10,FULVESTRANT,500,mg,INTRAMUSCULAR,ONCE,2022-02-26,2022-02-26
SYNTH-ONC-001,EX,SYNTH-ONC-001-0019,11,FULVESTRANT,500,mg,INTRAMUSCULAR,ONCE,2022-03-26,2022-03-26
SYNTH-ONC-001,EX,SYNTH-ONC-001-0019,12,FULVESTRANT,500,mg,INTRAMUSCULAR,ONCE,2022-04-23,2022-04-23
SYNTH-ONC-001,EX,SYNTH-ONC-001-0019,13,FULVESTRANT,500,mg,INTRAMUSCULAR,ONCE,2022-05-21,2022-05-21
SYNTH-ONC-001,EX,SYNTH-ONC-001-0019,14,FULVESTRANT,500,mg,INTRAMUSCULAR,ONCE,2022-06-18,2022-06-18
SYNTH-ONC-001,EX,SYNTH-ONC-001-0019,15,FULVESTRANT,500,mg,INTRAMUSCULAR,ONCE,2022-07-16,2022-07-16
SYNTH-ONC-001,EX,SYNTH-ONC-001-0019,16,FULVESTRANT,500,mg,INTRAMUSCULAR,ONCE,2022-08-13,2022-08-13
SYNTH-ONC-001,EX,SYNTH-ONC-001-0019,17,FULVESTRANT,500,mg,INTRAMUSCULAR,ONCE,2022-09-10,2022-09-10
SYNTH-ONC-001,EX,SYNTH-ONC-001-0019,18,FULVESTRANT,500,mg,INTRAMUSCULAR,ONCE,2022-10-08,2022-10-08
SYNTH-ONC-001,EX,SYNTH-ONC-001-0019,19,EVEROLIMUS,10,mg,ORAL,QD,2021-07-17,2022-11-04
SYNTH-ONC-001,EX,SYNTH-ONC-001-0020,1,FULVESTRANT,500,mg,INTRAMUSCULAR,ONCE,2022-05-26,2022-05-26
SYNTH-ONC-001,EX,SYNTH-ONC-001-0020,2,FULVESTRANT,500,mg,INTRAMUSCULAR,ONCE,2022-06-09,2022-06-09
SYNTH-ONC-001,EX,SYNTH-ONC-001-0020,3,FULVESTRANT,500,mg,INTRAMUSCULAR,ONCE,2022-06-23,2022-06-23
SYNTH-ONC-001,EX,SYNTH-ONC-001-0020,4,FULVESTRANT,500,mg,INTRAMUSCULAR,ONCE,2022-07-21,2022-07-21
SYNTH-ONC-001,EX,SYNTH-ONC-001-0020,5,FULVESTRANT,500,mg,INTRAMUSCULAR,ONCE,2022-08-18,2022-08-18
SYNTH-ONC-001,EX,SYNTH-ONC-001-0020,6,EVEROLIMUS,10,mg,ORAL,QD,2022-05-26,2022-08-29
SYNTH-ONC-001,EX,SYNTH-ONC-001-0021,1,FULVESTRANT,500,mg,INTRAMUSCULAR,ONCE,2021-05-24,2021-05-24
SYNTH-ONC-001,EX,SYNTH-ONC-001-0021,2,FULVESTRANT,500,mg,INTRAMUSCULAR,ONCE,2021-06-07,2021-06-07
SYNTH-ONC-001,EX,SYNTH-ONC-001-0021,3,FULVESTRANT,500,mg,INTRAMUSCULAR,ONCE,2021-06-21,2021-06-21
SYNTH-ONC-001,EX,SYNTH-ONC-001-0021,4,FULVESTRANT,500,mg,INTRAMUSCULAR,ONCE,2021-07-19,2021-07-19
SYNTH-ONC-001,EX,SYNTH-ONC-001-0021,5,FULVESTRANT,500,mg,INTRAMUSCULAR,ONCE,2021-08-16,2021-08-16
SYNTH-ONC-001,EX,SYNTH-ONC-001-0021,6,PLACEBO,10,mg,ORAL,QD,2021-05-24,2021-08-16
SYNTH-ONC-001,EX,SYNTH-ONC-001-0022,1,FULVESTRANT,500,mg,INTRAMUSCULAR,ONCE,2022-09-01,2022-09-01
SYNTH-ONC-001,EX,SYNTH-ONC-001-0022,2,FULVESTRANT,500,mg,INTRAMUSCULAR,ONCE,2022-09-15,2022-09-15
SYNTH-ONC-001,EX,SYNTH-ONC-001-0022,3,FULVESTRANT,500,mg,INTRAMUSCULAR,ONCE,2022-09-29,2022-09-29
SYNTH-ONC-001,EX,SYNTH-ONC-001-0022,4,FULVESTRANT,500,mg,INTRAMUSCULAR,ONCE,2022-10-27,2022-10-27
SYNTH-ONC-001,EX,SYNTH-ONC-001-0022,5,FULVESTRANT,500,mg,INTRAMUSCULAR,ONCE,2022-11-24,2022-11-24
SYNTH-ONC-001,EX,SYNTH-ONC-001-0022,6,FULVESTRANT,500,mg,INTRAMUSCULAR,ONCE,2022-12-22,2022-12-22
SYNTH-ONC-001,EX,SYNTH-ONC-001-0022,7,FULVESTRANT,500,mg,INTRAMUSCULAR,ONCE,2023-01-19,2023-01-19
SYNTH-ONC-001,EX,SYNTH-ONC-001-0022,8,FULVESTRANT,500,mg,INTRAMUSCULAR,ONCE,2023-02-16,2023-02-16
SYNTH-ONC-001,EX,SYNTH-ONC-001-0022,9,FULVESTRANT,500,mg,INTRAMUSCULAR,ONCE,2023-03-16,2023-03-16
SYNTH-ONC-001,EX,SYNTH-ONC-001-0022,10,FULVESTRANT,500,mg,INTRAMUSCULAR,ONCE,2023-04-13,2023-04-13
SYNTH-ONC-001,EX,SYNTH-ONC-001-0022,11,FULVESTRANT,500,mg,INTRAMUSCULAR,ONCE,2023-05-11,2023-05-11
SYNTH-ONC-001,EX,SYNTH-ONC-001-0022,12,FULVESTRANT,500,mg,INTRAMUSCULAR,ONCE,2023-06-08,2023-06-08
SYNTH-ONC-001,EX,SYNTH-ONC-001-0022,13,FULVESTRANT,500,mg,INTRAMUSCULAR,ONCE,2023-07-06,2023-07-06
SYNTH-ONC-001,EX,SYNTH-ONC-001-0022,14,FULVESTRANT,500,mg,INTRAMUSCULAR,ONCE,2023-08-03,2023-08-03
SYNTH-ONC-001,EX,SYNTH-ONC-001-0022,15,FULVESTRANT,500,mg,INTRAMUSCULAR,ONCE,2023-08-31,2023-08-31
SYNTH-ONC-001,EX,SYNTH-ONC-001-0022,16,FULVESTRANT,500,mg,INTRAMUSCULAR,ONCE,2023-09-28,2023-09-28
SYNTH-ONC-001,EX,SYNTH-ONC-001-0022,17,EVEROLIMUS,10,mg,ORAL,QD,2022-09-01,2023-10-01
SYNTH-ONC-001,EX,SYNTH-ONC-001-0023,1,FULVESTRANT,500,mg,INTRAMUSCULAR,ONCE,2021-07-20,2021-07-20
SYNTH-ONC-001,EX,SYNTH-ONC-001-0023,2,FULVESTRANT,500,mg,INTRAMUSCULAR,ONCE,2021-08-03,2021-08-03
SYNTH-ONC-001,EX,SYNTH-ONC-001-0023,3,FULVESTRANT,500,mg,INTRAMUSCULAR,ONCE,2021-08-17,2021-08-17
SYNTH-ONC-001,EX,SYNTH-ONC-001-0023,4,FULVESTRANT,500,mg,INTRAMUSCULAR,ONCE,2021-09-14,2021-09-14
SYNTH-ONC-001,EX,SYNTH-ONC-001-0023,5,FULVESTRANT,500,mg,INTRAMUSCULAR,ONCE,2021-10-12,2021-10-12
SYNTH-ONC-001,EX,SYNTH-ONC-001-0023,6,FULVESTRANT,500,mg,INTRAMUSCULAR,ONCE,2021-11-09,2021-11-09
SYNTH-ONC-001,EX,SYNTH-ONC-001-0023,7,FULVESTRANT,500,mg,INTRAMUSCULAR,ONCE,2021-12-07,2021-12-07
SYNTH-ONC-001,EX,SYNTH-ONC-001-0023,8,FULVESTRANT,500,mg,INTRAMUSCULAR,ONCE,2022-01-04,2022-01-04
SYNTH-ONC-001,EX,SYNTH-ONC-001-0023,9,FULVESTRANT,500,mg,INTRAMUSCULAR,ONCE,2022-02-01,2022-02-01
SYNTH-ONC-001,EX,SYNTH-ONC-001-0023,10,FULVESTRANT,500,mg,INTRAMUSCULAR,ONCE,2022-03-01,2022-03-01
SYNTH-ONC-001,EX,SYNTH-ONC-001-0023,11,PLACEBO,10,mg,ORAL,QD,2021-07-20,2022-03-24
SYNTH-ONC-001,EX,SYNTH-ONC-001-0024,1,FULVESTRANT,500,mg,INTRAMUSCULAR,ONCE,2021-05-04,2021-05-04
SYNTH-ONC-001,EX,SYNTH-ONC-001-0024,2,FULVESTRANT,500,mg,INTRAMUSCULAR,ONCE,2021-05-18,2021-05-18
SYNTH-ONC-001,EX,SYNTH-ONC-001-0024,3,FULVESTRANT,500,mg,INTRAMUSCULAR,ONCE,2021-06-01,2021-06-01
SYNTH-ONC-001,EX,SYNTH-ONC-001-0024,4,FULVESTRANT,500,mg,INTRAMUSCULAR,ONCE,2021-06-29,2021-06-29
SYNTH-ONC-001,EX,SYNTH-ONC-001-0024,5,FULVESTRANT,500,mg,INTRAMUSCULAR,ONCE,2021-07-27,2021-07-27
SYNTH-ONC-001,EX,SYNTH-ONC-001-0024,6,FULVESTRANT,500,mg,INTRAMUSCULAR,ONCE,2021-08-24,2021-08-24
SYNTH-ONC-001,EX,SYNTH-ONC-001-0024,7,FULVESTRANT,500,mg,INTRAMUSCULAR,ONCE,2021-09-21,2021-09-21
SYNTH-ONC-001,EX,SYNTH-ONC-001-0024,8,FULVESTRANT,500,mg,INTRAMUSCULAR,ONCE,2021-10-19,2021-10-19
SYNTH-ONC-001,EX,SYNTH-ONC-001-0024,9,EVEROLIMUS,10,mg,ORAL,QD,2021-05-04,2021-10-23
SYNTH-ONC-001,EX,SYNTH-ONC-001-0025,1,FULVESTRANT,500,mg,INTRAMUSCULAR,ONCE,2021-07-06,2021-07-06
SYNTH-ONC-001,EX,SYNTH-ONC-001-0025,2,FULVESTRANT,500,mg,INTRAMUSCULAR,ONCE,2021-07-20,2021-07-20
SYNTH-ONC-001,EX,SYNTH-ONC-001-0025,3,FULVESTRANT,500,mg,INTRAMUSCULAR,ONCE,2021-08-03,2021-08-03
SYNTH-ONC-001,EX,SYNTH-ONC-001-0025,4,FULVESTRANT,500,mg,INTRAMUSCULAR,ONCE,2021-08-31,2021-08-31
SYNTH-ONC-001,EX,SYNTH-ONC-001-0025,5,FULVESTRANT,500,mg,INTRAMUSCULAR,ONCE,2021-09-28,2021-09-28
SYNTH-ONC-001,EX,SYNTH-ONC-001-0025,6,FULVESTRANT,500,mg,INTRAMUSCULAR,ONCE,2021-10-26,2021-10-26
SYNTH-ONC-001,EX,SYNTH-ONC-001-0025,7,FULVESTRANT,500,mg,INTRAMUSCULAR,ONCE,2021-11-23,2021-11-23
SYNTH-ONC-001,EX,SYNTH-ONC-001-0025,8,FULVESTRANT,500,mg,INTRAMUSCULAR,ONCE,2021-12-21,2021-12-21
SYNTH-ONC-001,EX,SYNTH-ONC-001-0025,9,FULVESTRANT,500,mg,INTRAMUSCULAR,ONCE,2022-01-18,2022-01-18
SYNTH-ONC-001,EX,SYNTH-ONC-001-0025,10,FULVESTRANT,500,mg,INTRAMUSCULAR,ONCE,2022-02-15,2022-02-15
SYNTH-ONC-001,EX,SYNTH-ONC-001-0025,11,FULVESTRANT,500,mg,INTRAMUSCULAR,ONCE,2022-03-15,2022-03-15
SYNTH-ONC-001,EX,SYNTH-ONC-001-0025,12,FULVESTRANT,500,mg,INTRAMUSCULAR,ONCE,2022-04-12,2022-04-12
SYNTH-ONC-001,EX,SYNTH-ONC-001-0025,13,FULVESTRANT,500,mg,INTRAMUSCULAR,ONCE,2022-05-10,2022-05-10
SYNTH-ONC-001,EX,SYNTH-ONC-001-0025,14,FULVESTRANT,500,mg,INTRAMUSCULAR,ONCE,2022-06-07,2022-06-07
SYNTH-ONC-001,EX,SYNTH-ONC-001-0025,15,FULVESTRANT,500,mg,INTRAMUSCULAR,ONCE,2022-07-05,2022-07-05
SYNTH-ONC-001,EX,SYNTH-ONC-001-0025,16,EVEROLIMUS,10,mg,ORAL,QD,2021-07-06,2022-07-14
SYNTH-ONC-001,EX,SYNTH-ONC-001-0026,1,FULVESTRANT,500,mg,INTRAMUSCULAR,ONCE,2021-11-22,2021-11-22
SYNTH-ONC-001,EX,SYNTH-ONC-001-0026,2,FULVESTRANT,500,mg,INTRAMUSCULAR,ONCE,2021-12-06,2021-12-06
SYNTH-ONC-001,EX,SYNTH-ONC-001-0026,3,FULVESTRANT,500,mg,INTRAMUSCULAR,ONCE,2021-12-20,2021-12-20
SYNTH-ONC-001,EX,SYNTH-ONC-001-0026,4,FULVESTRANT,500,mg,INTRAMUSCULAR,ONCE,2022-01-17,2022-01-17
SYNTH-ONC-001,EX,SYNTH-ONC-001-0026,5,FULVESTRANT,500,mg,INTRAMUSCULAR,ONCE,2022-02-14,2022-02-14
SYNTH-ONC-001,EX,SYNTH-ONC-001-0026,6,FULVESTRANT,500,mg,INTRAMUSCULAR,ONCE,2022-03-14,2022-03-14
SYNTH-ONC-001,EX,SYNTH-ONC-001-0026,7,FULVESTRANT,500,mg,INTRAMUSCULAR,ONCE,2022-04-11,2022-04-11
SYNTH-ONC-001,EX,SYNTH-ONC-001-0026,8,FULVESTRANT,500,mg,INTRAMUSCULAR,ONCE,2022-05-09,2022-05-09
SYNTH-ONC-001,EX,SYNTH-ONC-001-0026,9,FULVESTRANT,500,mg,INTRAMUSCULAR,ONCE,2022-06-06,2022-06-06
SYNTH-ONC-001,EX,SYNTH-ONC-001-0026,10,FULVESTRANT,500,mg,INTRAMUSCULAR,ONCE,2022-07-04,2022-07-04
SYNTH-ONC-001,EX,SYNTH-ONC-001-0026,11,EVEROLIMUS,10,mg,ORAL,QD,2021-11-22,2022-07-24
SYNTH-ONC-001,EX,SYNTH-ONC-001-0027,1,FULVESTRANT,500,mg,INTRAMUSCULAR,ONCE,2022-04-09,2022-04-09
SYNTH-ONC-001,EX,SYNTH-ONC-001-0027,2,FULVESTRANT,500,mg,INTRAMUSCULAR,ONCE,2022-04-23,2022-04-23
SYNTH-ONC-001,EX,SYNTH-ONC-001-0027,3,FULVESTRANT,500,mg,INTRAMUSCULAR,ONCE,2022-05-07,2022-05-07
SYNTH-ONC-001,EX,SYNTH-ONC-001-0027,4,FULVESTRANT,500,mg,INTRAMUSCULAR,ONCE,2022-06-04,2022-06-04
SYNTH-ONC-001,EX,SYNTH-ONC-001-0027,5,FULVESTRANT,500,mg,INTRAMUSCULAR,ONCE,2022-07-02,2022-07-02
SYNTH-ONC-001,EX,SYNTH-ONC-001-0027,6,FULVESTRANT,500,mg,INTRAMUSCULAR,ONCE,2022-07-30,2022-07-30
SYNTH-ONC-001,EX,SYNTH-ONC-001-0027,7,FULVESTRANT,500,mg,INTRAMUSCULAR,ONCE,2022-08-27,2022-08-27
SYNTH-ONC-001,EX,SYNTH-ONC-001-0027,8,FULVESTRANT,500,mg,INTRAMUSCULAR,ONCE,2022-09-24,2022-09-24
SYNTH-ONC-001,EX,SYNTH-ONC-001-0027,9,FULVESTRANT,500,mg,INTRAMUSCULAR,ONCE,2022-10-22,2022-10-22
SYNTH-ONC-001,EX,SYNTH-ONC-001-0027,10,FULVESTRANT,500,mg,INTRAMUSCULAR,ONCE,2022-11-19,2022-11-19
SYNTH-ONC-001,EX,SYNTH-ONC-001-0027,11,FULVESTRANT,500,mg,INTRAMUSCULAR,ONCE,2022-12-17,2022-12-17
SYNTH-ONC-001,EX,SYNTH-ONC-001-0027,12,FULVESTRANT,500,mg,INTRAMUSCULAR,ONCE,2023-01-14,2023-01-14
SYNTH-ONC-001,EX,SYNTH-ONC-001-0027,13,FULVESTRANT,500,mg,INTRAMUSCULAR,ONCE,2023-02-11,2023-02-11
SYNTH-ONC-001,EX,SYNTH-ONC-001-0027,14,FULVESTRANT,500,mg,INTRAMUSCULAR,ONCE,2023-03-11,2023-03-11
SYNTH-ONC-001,EX,SYNTH-ONC-001-0027,15,EVEROLIMUS,10,mg,ORAL,QD,2022-04-09,2023-03-25
SYNTH-ONC-001,EX,SYNTH-ONC-001-0028,1,FULVESTRANT,500,mg,INTRAMUSCULAR,ONCE,2021-12-15,2021-12-15
SYNTH-ONC-001,EX,SYNTH-ONC-001-0028,2,FULVESTRANT,500,mg,INTRAMUSCULAR,ONCE,2021-12-29,2021-12-29
SYNTH-ONC-001,EX,SYNTH-ONC-001-0028,3,FULVESTRANT,500,mg,INTRAMUSCULAR,ONCE,2022-01-12,2022-01-12
SYNTH-ONC-001,EX,SYNTH-ONC-001-0028,4,FULVESTRANT,500,mg,INTRAMUSCULAR,ONCE,2022-02-09,2022-02-09
SYNTH-ONC-001,EX,SYNTH-ONC-001-0028,5,FULVESTRANT,500,mg,INTRAMUSCULAR,ONCE,2022-03-09,2022-03-09
SYNTH-ONC-001,EX,SYNTH-ONC-001-0028,6,FULVESTRANT,500,mg,INTRAMUSCULAR,ONCE,2022-04-06,2022-04-06
SYNTH-ONC-001,EX,SYNTH-ONC-001-0028,7,FULVESTRANT,500,mg,INTRAMUSCULAR,ONCE,2022-05-04,2022-05-04
SYNTH-ONC-001,EX,SYNTH-ONC-001-0028,8,FULVESTRANT,500,mg,INTRAMUSCULAR,ONCE,2022-06-01,2022-06-01
SYNTH-ONC-001,EX,SYNTH-ONC-001-0028,9,FULVESTRANT,500,mg,INTRAMUSCULAR,ONCE,2022-06-29,2022-06-29
SYNTH-ONC-001,EX,SYNTH-ONC-001-0028,10,FULVESTRANT,500,mg,INTRAMUSCULAR,ONCE,2022-07-27,2022-07-27
SYNTH-ONC-001,EX,SYNTH-ONC-001-0028,11,FULVESTRANT,500,mg,INTRAMUSCULAR,ONCE,2022-08-24,2022-08-24
SYNTH-ONC-001,EX,SYNTH-ONC-001-0028,12,FULVESTRANT,500,mg,INTRAMUSCULAR,ONCE,2022-09-21,2022-09-21
SYNTH-ONC-001,EX,SYNTH-ONC-001-0028,13,FULVESTRANT,500,mg,INTRAMUSCULAR,ONCE,2022-10-19,2022-10-19
SYNTH-ONC-001,EX,SYNTH-ONC-001-0028,14,EVEROLIMUS,10,mg,ORAL,QD,2021-12-15,2022-10-19
SYNTH-ONC-001,EX,SYNTH-ONC-001-0029,1,FULVESTRANT,500,mg,INTRAMUSCULAR,ONCE,2022-10-22,2022-10-22
SYNTH-ONC-001,EX,SYNTH-ONC-001-0029,2,FULVESTRANT,500,mg,INTRAMUSCULAR,ONCE,2022-11-05,2022-11-05
SYNTH-ONC-001,EX,SYNTH-ONC-001-0029,3,FULVESTRANT,500,mg,INTRAMUSCULAR,ONCE,2022-11-19,2022-11-19
SYNTH-ONC-001,EX,SYNTH-ONC-001-0029,4,FULVESTRANT,500,mg,INTRAMUSCULAR,ONCE,2022-12-17,2022-12-17
SYNTH-ONC-001,EX,SYNTH-ONC-001-0029,5,FULVESTRANT,500,mg,INTRAMUSCULAR,ONCE,2023-01-14,2023-01-14
SYNTH-ONC-001,EX,SYNTH-ONC-001-0029,6,FULVESTRANT,500,mg,INTRAMUSCULAR,ONCE,2023-02-11,2023-02-11
SYNTH-ONC-001,EX,SYNTH-ONC-001-0029,7,FULVESTRANT,500,mg,INTRAMUSCULAR,ONCE,2023-03-11,2023-03-11
SYNTH-ONC-001,EX,SYNTH-ONC-001-0029,8,FULVESTRANT,500,mg,INTRAMUSCULAR,ONCE,2023-04-08,2023-04-08
SYNTH-ONC-001,EX,SYNTH-ONC-001-0029,9,FULVESTRANT,500,mg,INTRAMUSCULAR,ONCE,2023-05-06,2023-05-06
SYNTH-ONC-001,EX,SYNTH-ONC-001-0029,10,FULVESTRANT,500,mg,INTRAMUSCULAR,ONCE,2023-06-03,2023-06-03
SYNTH-ONC-001,EX,SYNTH-ONC-001-0029,11,FULVESTRANT,500,mg,INTRAMUSCULAR,ONCE,2023-07-01,2023-07-01
SYNTH-ONC-001,EX,SYNTH-ONC-001-0029,12,FULVESTRANT,500,mg,INTRAMUSCULAR,ONCE,2023-07-29,2023-07-29
SYNTH-ONC-001,EX,SYNTH-ONC-001-0029,13,FULVESTRANT,500,mg,INTRAMUSCULAR,ONCE,2023-08-26,2023-08-26
SYNTH-ONC-001,EX,SYNTH-ONC-001-0029,14,FULVESTRANT,500,mg,INTRAMUSCULAR,ONCE,2023-09-23,2023-09-23
SYNTH-ONC-001,EX,SYNTH-ONC-001-0029,15,FULVESTRANT,500,mg,INTRAMUSCULAR,ONCE,2023-10-21,2023-10-21
SYNTH-ONC-001,EX,SYNTH-ONC-001-0029,16,PLACEBO,10,mg,ORAL,QD,2022-10-22,2023-11-01
SYNTH-ONC-001,EX,SYNTH-ONC-001-0030,1,FULVESTRANT,500,mg,INTRAMUSCULAR,ONCE,2022-02-07,2022-02-07
SYNTH-ONC-001,EX,SYNTH-ONC-001-0030,2,FULVESTRANT,500,mg,INTRAMUSCULAR,ONCE,2022-02-21,2022-02-21
SYNTH-ONC-001,EX,SYNTH-ONC-001-0030,3,FULVESTRANT,500,mg,INTRAMUSCULAR,ONCE,2022-03-07,2022-03-07
SYNTH-ONC-001,EX,SYNTH-ONC-001-0030,4,FULVESTRANT,500,mg,INTRAMUSCULAR,ONCE,2022-04-04,2022-04-04
SYNTH-ONC-001,EX,SYNTH-ONC-001-0030,5,FULVESTRANT,500,mg,INTRAMUSCULAR,ONCE,2022-05-02,2022-05-02
SYNTH-ONC-001,EX,SYNTH-ONC-001-0030,6,FULVESTRANT,500,mg,INTRAMUSCULAR,ONCE,2022-05-30,2022-05-30
SYNTH-ONC-001,EX,SYNTH-ONC-001-0030,7,FULVESTRANT,500,mg,INTRAMUSCULAR,ONCE,2022-06-27,2022-06-27
SYNTH-ONC-001,EX,SYNTH-ONC-001-0030,8,FULVESTRANT,500,mg,INTRAMUSCULAR,ONCE,2022-07-25,2022-07-25
SYNTH-ONC-001,EX,SYNTH-ONC-001-0030,9,FULVESTRANT,500,mg,INTRAMUSCULAR,ONCE,2022-08-22,2022-08-22
SYNTH-ONC-001,EX,SYNTH-ONC-001-0030,10,FULVESTRANT,500,mg,INTRAMUSCULAR,ONCE,2022-09-19,2022-09-19
SYNTH-ONC-001,EX,SYNTH-ONC-001-0030,11,FULVESTRANT,500,mg,INTRAMUSCULAR,ONCE,2022-10-17,2022-10-17
SYNTH-ONC-001,EX,SYNTH-ONC-001-0030,12,PLACEBO,10,mg,ORAL,QD,2022-02-07,2022-11-10
SYNTH-ONC-001,EX,SYNTH-ONC-001-0031,1,FULVESTRANT,500,mg,INTRAMUSCULAR,ONCE,2021-12-12,2021-12-12
SYNTH-ONC-001,EX,SYNTH-ONC-001-0031,2,FULVESTRANT,500,mg,INTRAMUSCULAR,ONCE,2021-12-26,2021-12-26
SYNTH-ONC-001,EX,SYNTH-ONC-001-0031,3,FULVESTRANT,500,mg,INTRAMUSCULAR,ONCE,2022-01-09,2022-01-09
SYNTH-ONC-001,EX,SYNTH-ONC-001-0031,4,FULVESTRANT,500,mg,INTRAMUSCULAR,ONCE,2022-02-06,2022-02-06
SYNTH-ONC-001,EX,SYNTH-ONC-001-0031,5,FULVESTRANT,500,mg,INTRAMUSCULAR,ONCE,2022-03-06,2022-03-06
SYNTH-ONC-001,EX,SYNTH-ONC-001-0031,6,FULVESTRANT,500,mg,INTRAMUSCULAR,ONCE,2022-04-03,2022-04-03
SYNTH-ONC-001,EX,SYNTH-ONC-001-0031,7,FULVESTRANT,500,mg,INTRAMUSCULAR,ONCE,2022-05-01,2022-05-01
SYNTH-ONC-001,EX,SYNTH-ONC-001-0031,8,FULVESTRANT,500,mg,INTRAMUSCULAR,ONCE,2022-05-29,2022-05-29
SYNTH-ONC-001,EX,SYNTH-ONC-001-0031,9,FULVESTRANT,500,mg,INTRAMUSCULAR,ONCE,2022-06-26,2022-06-26
SYNTH-ONC-001,EX,SYNTH-ONC-001-0031,10,FULVESTRANT,500,mg,INTRAMUSCULAR,ONCE,2022-07-24,2022-07-24
SYNTH-ONC-001,EX,SYNTH-ONC-001-0031,11,FULVESTRANT,500,mg,INTRAMUSCULAR,ONCE,2022-08-21,2022-08-21
SYNTH-ONC-001,EX,SYNTH-ONC-001-0031,12,FULVESTRANT,500,mg,INTRAMUSCULAR,ONCE,2022-09-18,2022-09-18
SYNTH-ONC-001,EX,SYNTH-ONC-001-0031,13,FULVESTRANT,500,mg,INTRAMUSCULAR,ONCE,2022-10-16,2022-10-16
SYNTH-ONC-001,EX,SYNTH-ONC-001-0031,14,FULVESTRANT,500,mg,INTRAMUSCULAR,ONCE,2022-11-13,2022-11-13
SYNTH-ONC-001,EX,SYNTH-ONC-001-0031,15,FULVESTRANT,500,mg,INTRAMUSCULAR,ONCE,2022-12-11,2022-12-11
SYNTH-ONC-001,EX,SYNTH-ONC-001-0031,16,FULVESTRANT,500,mg,INTRAMUSCULAR,ONCE,2023-01-08,2023-01-08
SYNTH-ONC-001,EX,SYNTH-ONC-001-0031,17,FULVESTRANT,500,mg,INTRAMUSCULAR,ONCE,2023-02-05,2023-02-05
SYNTH-ONC-001,EX,SYNTH-ONC-001-0031,18,EVEROLIMUS,10,mg,ORAL,QD,2021-12-12,2023-02-21
SYNTH-ONC-001,EX,SYNTH-ONC-001-0032,1,FULVESTRANT,500,mg,INTRAMUSCULAR,ONCE,2022-05-26,2022-05-26
SYNTH-ONC-001,EX,SYNTH-ONC-001-0032,2,FULVESTRANT,500,mg,INTRAMUSCULAR,ONCE,2022-06-09,2022-06-09
SYNTH-ONC-001,EX,SYNTH-ONC-001-0032,3,FULVESTRANT,500,mg,INTRAMUSCULAR,ONCE,2022-06-23,2022-06-23
SYNTH-ONC-001,EX,SYNTH-ONC-001-0032,4,FULVESTRANT,500,mg,INTRAMUSCULAR,ONCE,2022-07-21,2022-07-21
SYNTH-ONC-001,EX,SYNTH-ONC-001-0032,5,FULVESTRANT,500,mg,INTRAMUSCULAR,ONCE,2022-08-18,2022-08-18
SYNTH-ONC-001,EX,SYNTH-ONC-001-0032,6,FULVESTRANT,500,mg,INTRAMUSCULAR,ONCE,2022-09-15,2022-09-15
SYNTH-ONC-001,EX,SYNTH-ONC-001-0032,7,FULVESTRANT,500,mg,INTRAMUSCULAR,ONCE,2022-10-13,2022-10-13
SYNTH-ONC-001,EX,SYNTH-ONC-001-0032,8,EVEROLIMUS,10,mg,ORAL,QD,2022-05-26,2022-10-30
SYNTH-ONC-001,EX,SYNTH-ONC-001-0033,1,FULVESTRANT,500,mg,INTRAMUSCULAR,ONCE,2021-05-27,2021-05-27
SYNTH-ONC-001,EX,SYNTH-ONC-001-0033,2,FULVESTRANT,500,mg,INTRAMUSCULAR,ONCE,2021-06-10,2021-06-10
SYNTH-ONC-001,EX,SYNTH-ONC-001-0033,3,FULVESTRANT,500,mg,INTRAMUSCULAR,ONCE,2021-06-24,2021-06-24
SYNTH-ONC-001,EX,SYNTH-ONC-001-0033,4,FULVESTRANT,500,mg,INTRAMUSCULAR,ONCE,2021-07-22,2021-07-22
SYNTH-ONC-001,EX,SYNTH-ONC-001-0033,5,FULVESTRANT,500,mg,INTRAMUSCULAR,ONCE,2021-08-19,2021-08-19
SYNTH-ONC-001,EX,SYNTH-ONC-001-0033,6,FULVESTRANT,500,mg,INTRAMUSCULAR,ONCE,2021-09-16,2021-09-16
SYNTH-ONC-001,EX,SYNTH-ONC-001-0033,7,FULVESTRANT,500,mg,INTRAMUSCULAR,ONCE,2021-10-14,2021-10-14
SYNTH-ONC-001,EX,SYNTH-ONC-001-0033,8,FULVESTRANT,500,mg,INTRAMUSCULAR,ONCE,2021-11-11,2021-11-11
SYNTH-ONC-001,EX,SYNTH-ONC-001-0033,9,FULVESTRANT,500,mg,INTRAMUSCULAR,ONCE,2021-12-09,2021-12-09
SYNTH-ONC-001,EX,SYNTH-ONC-001-0033,10,FULVESTRANT,500,mg,INTRAMUSCULAR,ONCE,2022-01-06,2022-01-06
SYNTH-ONC-001,EX,SYNTH-ONC-001-0033,11,FULVESTRANT,500,mg,INTRAMUSCULAR,ONCE,2022-02-03,2022-02-03
SYNTH-ONC-001,EX,SYNTH-ONC-001-0033,12,FULVESTRANT,500,mg,INTRAMUSCULAR,ONCE,2022-03-03,2022-03-03
SYNTH-ONC-001,EX,SYNTH-ONC-001-0033,13,FULVESTRANT,500,mg,INTRAMUSCULAR,ONCE,2022-03-31,2022-03-31
SYNTH-ONC-001,EX,SYNTH-ONC-001-0033,14,FULVESTRANT,500,mg,INTRAMUSCULAR,ONCE,2022-04-28,2022-04-28
SYNTH-ONC-001,EX,SYNTH-ONC-001-0033,15,FULVESTRANT,500,mg,INTRAMUSCULAR,ONCE,2022-05-26,2022-05-26
SYNTH-ONC-001,EX,SYNTH-ONC-001-0033,16,FULVESTRANT,500,mg,INTRAMUSCULAR,ONCE,2022-06-23,2022-06-23
SYNTH-ONC-001,EX,SYNTH-ONC-001-0033,17,FULVESTRANT,500,mg,INTRAMUSCULAR,ONCE,2022-07-21,2022-07-21
SYNTH-ONC-001,EX,SYNTH-ONC-001-0033,18,EVEROLIMUS,10,mg,ORAL,QD,2021-05-27,2022-08-06
SYNTH-ONC-001,EX,SYNTH-ONC-001-0034,1,FULVESTRANT,500,mg,INTRAMUSCULAR,ONCE,2021-05-28,2021-05-28
SYNTH-ONC-001,EX,SYNTH-ONC-001-0034,2,FULVESTRANT,500,mg,INTRAMUSCULAR,ONCE,2021-06-11,2021-06-11
SYNTH-ONC-001,EX,SYNTH-ONC-001-0034,3,FULVESTRANT,500,mg,INTRAMUSCULAR,ONCE,2021-06-25,2021-06-25
SYNTH-ONC-001,EX,SYNTH-ONC-001-0034,4,FULVESTRANT,500,mg,INTRAMUSCULAR,ONCE,2021-07-23,2021-07-23
SYNTH-ONC-001,EX,SYNTH-ONC-001-0034,5,FULVESTRANT,500,mg,INTRAMUSCULAR,ONCE,2021-08-20,2021-08-20
SYNTH-ONC-001,EX,SYNTH-ONC-001-0034,6,FULVESTRANT,500,mg,INTRAMUSCULAR,ONCE,2021-09-17,2021-09-17
SYNTH-ONC-001,EX,SYNTH-ONC-001-0034,7,FULVESTRANT,500,mg,INTRAMUSCULAR,ONCE,2021-10-15,2021-10-15
SYNTH-ONC-001,EX,SYNTH-ONC-001-0034,8,FULVESTRANT,500,mg,INTRAMUSCULAR,ONCE,2021-11-12,2021-11-12
SYNTH-ONC-001,EX,SYNTH-ONC-001-0034,9,FULVESTRANT,500,mg,INTRAMUSCULAR,ONCE,2021-12-10,2021-12-10
SYNTH-ONC-001,EX,SYNTH-ONC-001-0034,10,FULVESTRANT,500,mg,INTRAMUSCULAR,ONCE,2022-01-07,2022-01-07
SYNTH-ONC-001,EX,SYNTH-ONC-001-0034,11,FULVESTRANT,500,mg,INTRAMUSCULAR,ONCE,2022-02-04,2022-02-04
SYNTH-ONC-001,EX,SYNTH-ONC-001-0034,12,FULVESTRANT,500,mg,INTRAMUSCULAR,ONCE,2022-03-04,2022-03-04
SYNTH-ONC-001,EX,SYNTH-ONC-001-0034,13,EVEROLIMUS,10,mg,ORAL,QD,2021-05-28,2022-03-06
SYNTH-ONC-001,EX,SYNTH-ONC-001-0035,1,FULVESTRANT,500,mg,INTRAMUSCULAR,ONCE,2022-12-12,2022-12-12
SYNTH-ONC-001,EX,SYNTH-ONC-001-0035,2,FULVESTRANT,500,mg,INTRAMUSCULAR,ONCE,2022-12-26,2022-12-26
SYNTH-ONC-001,EX,SYNTH-ONC-001-0035,3,FULVESTRANT,500,mg,INTRAMUSCULAR,ONCE,2023-01-09,2023-01-09
SYNTH-ONC-001,EX,SYNTH-ONC-001-0035,4,FULVESTRANT,500,mg,INTRAMUSCULAR,ONCE,2023-02-06,2023-02-06
SYNTH-ONC-001,EX,SYNTH-ONC-001-0035,5,FULVESTRANT,500,mg,INTRAMUSCULAR,ONCE,2023-03-06,2023-03-06
SYNTH-ONC-001,EX,SYNTH-ONC-001-0035,6,FULVESTRANT,500,mg,INTRAMUSCULAR,ONCE,2023-04-03,2023-04-03
SYNTH-ONC-001,EX,SYNTH-ONC-001-0035,7,FULVESTRANT,500,mg,INTRAMUSCULAR,ONCE,2023-05-01,2023-05-01
SYNTH-ONC-001,EX,SYNTH-ONC-001-0035,8,FULVESTRANT,500,mg,INTRAMUSCULAR,ONCE,2023-05-29,2023-05-29
SYNTH-ONC-001,EX,SYNTH-ONC-001-0035,9,FULVESTRANT,500,mg,INTRAMUSCULAR,ONCE,2023-06-26,2023-06-26
SYNTH-ONC-001,EX,SYNTH-ONC-001-0035,10,FULVESTRANT,500,mg,INTRAMUSCULAR,ONCE,2023-07-24,2023-07-24
SYNTH-ONC-001,EX,SYNTH-ONC-001-0035,11,FULVESTRANT,500,mg,INTRAMUSCULAR,ONCE,2023-08-21,2023-08-21
SYNTH-ONC-001,EX,SYNTH-ONC-001-0035,12,FULVESTRANT,500,mg,INTRAMUSCULAR,ONCE,2023-09-18,2023-09-18
SYNTH-ONC-001,EX,SYNTH-ONC-001-0035,13,FULVESTRANT,500,mg,INTRAMUSCULAR,ONCE,2023-10-16,2023-10-16
SYNTH-ONC-001,EX,SYNTH-ONC-001-0035,14,FULVESTRANT,500,mg,INTRAMUSCULAR,ONCE,2023-11-13,2023-11-13
SYNTH-ONC-001,EX,SYNTH-ONC-001-0035,15,FULVESTRANT,500,mg,INTRAMUSCULAR,ONCE,2023-12-11,2023-12-11
SYNTH-ONC-001,EX,SYNTH-ONC-001-0035,16,FULVESTRANT,500,mg,INTRAMUSCULAR,ONCE,2024-01-08,2024-01-08
SYNTH-ONC-001,EX,SYNTH-ONC-001-0035,17,FULVESTRANT,500,mg,INTRAMUSCULAR,ONCE,2024-02-05,2024-02-05
SYNTH-ONC-001,EX,SYNTH-ONC-001-0035,18,FULVESTRANT,500,mg,INTRAMUSCULAR,ONCE,2024-03-04,2024-03-04
SYNTH-ONC-001,EX,SYNTH-ONC-001-0035,19,FULVESTRANT,500,mg,INTRAMUSCULAR,ONCE,2024-04-01,2024-04-01
SYNTH-ONC-001,EX,SYNTH-ONC-001-0035,20,FULVESTRANT,500,mg,INTRAMUSCULAR,ONCE,2024-04-29,2024-04-29
SYNTH-ONC-001,EX,SYNTH-ONC-001-0035,21,FULVESTRANT,500,mg,INTRAMUSCULAR,ONCE,2024-05-27,2024-05-27
SYNTH-ONC-001,EX,SYNTH-ONC-001-0035,22,PLACEBO,10,mg,ORAL,QD,2022-12-12,2024-05-27
SYNTH-ONC-001,EX,SYNTH-ONC-001-0036,1,FULVESTRANT,500,mg,INTRAMUSCULAR,ONCE,2022-05-04,2022-05-04
SYNTH-ONC-001,EX,SYNTH-ONC-001-0036,2,FULVESTRANT,500,mg,INTRAMUSCULAR,ONCE,2022-05-18,2022-05-18
SYNTH-ONC-001,EX,SYNTH-ONC-001-0036,3,FULVESTRANT,500,mg,INTRAMUSCULAR,ONCE,2022-06-01,2022-06-01
SYNTH-ONC-001,EX,SYNTH-ONC-001-0036,4,FULVESTRANT,500,mg,INTRAMUSCULAR,ONCE,2022-06-29,2022-06-29
SYNTH-ONC-001,EX,SYNTH-ONC-001-0036,5,FULVESTRANT,500,mg,INTRAMUSCULAR,ONCE,2022-07-27,2022-07-27
SYNTH-ONC-001,EX,SYNTH-ONC-001-0036,6,FULVESTRANT,500,mg,INTRAMUSCULAR,ONCE,2022-08-24,2022-08-24
SYNTH-ONC-001,EX,SYNTH-ONC-001-0036,7,FULVESTRANT,500,mg,INTRAMUSCULAR,ONCE,2022-09-21,2022-09-21
SYNTH-ONC-001,EX,SYNTH-ONC-001-0036,8,FULVESTRANT,500,mg,INTRAMUSCULAR,ONCE,2022-10-19,2022-10-19
SYNTH-ONC-001,EX,SYNTH-ONC-001-0036,9,FULVESTRANT,500,mg,INTRAMUSCULAR,ONCE,2022-11-16,2022-11-16
SYNTH-ONC-001,EX,SYNTH-ONC-001-0036,10,FULVESTRANT,500,mg,INTRAMUSCULAR,ONCE,2022-12-14,2022-12-14
SYNTH-ONC-001,EX,SYNTH-ONC-001-0036,11,FULVESTRANT,500,mg,INTRAMUSCULAR,ONCE,2023-01-11,2023-01-11
SYNTH-ONC-001,EX,SYNTH-ONC-001-0036,12,FULVESTRANT,500,mg,INTRAMUSCULAR,ONCE,2023-02-08,2023-02-08
SYNTH-ONC-001,EX,SYNTH-ONC-001-0036,13,FULVESTRANT,500,mg,INTRAMUSCULAR,ONCE,2023-03-08,2023-03-08
SYNTH-ONC-001,EX,SYNTH-ONC-001-0036,14,FULVESTRANT,500,mg,INTRAMUSCULAR,ONCE,2023-04-05,2023-04-05
SYNTH-ONC-001,EX,SYNTH-ONC-001-0036,15,PLACEBO,10,mg,ORAL,QD,2022-05-04,2023-04-07
SYNTH-ONC-001,EX,SYNTH-ONC-001-0037,1,FULVESTRANT,500,mg,INTRAMUSCULAR,ONCE,2022-10-02,2022-10-02
SYNTH-ONC-001,EX,SYNTH-ONC-001-0037,2,FULVESTRANT,500,mg,INTRAMUSCULAR,ONCE,2022-10-16,2022-10-16
SYNTH-ONC-001,EX,SYNTH-ONC-001-0037,3,FULVESTRANT,500,mg,INTRAMUSCULAR,ONCE,2022-10-30,2022-10-30
SYNTH-ONC-001,EX,SYNTH-ONC-001-0037,4,FULVESTRANT,500,mg,INTRAMUSCULAR,ONCE,2022-11-27,2022-11-27
SYNTH-ONC-001,EX,SYNTH-ONC-001-0037,5,FULVESTRANT,500,mg,INTRAMUSCULAR,ONCE,2022-12-25,2022-12-25
SYNTH-ONC-001,EX,SYNTH-ONC-001-0037,6,FULVESTRANT,500,mg,INTRAMUSCULAR,ONCE,2023-01-22,2023-01-22
SYNTH-ONC-001,EX,SYNTH-ONC-001-0037,7,FULVESTRANT,500,mg,INTRAMUSCULAR,ONCE,2023-02-19,2023-02-19
SYNTH-ONC-001,EX,SYNTH-ONC-001-0037,8,FULVESTRANT,500,mg,INTRAMUSCULAR,ONCE,2023-03-19,2023-03-19
SYNTH-ONC-001,EX,SYNTH-ONC-001-0037,9,FULVESTRANT,500,mg,INTRAMUSCULAR,ONCE,2023-04-16,2023-04-16
SYNTH-ONC-001,EX,SYNTH-ONC-001-0037,10,FULVESTRANT,500,mg,INTRAMUSCULAR,ONCE,2023-05-14,2023-05-14
SYNTH-ONC-001,EX,SYNTH-ONC-001-0037,11,FULVESTRANT,500,mg,INTRAMUSCULAR,ONCE,2023-06-11,2023-06-11
SYNTH-ONC-001,EX,SYNTH-ONC-001-0037,12,FULVESTRANT,500,mg,INTRAMUSCULAR,ONCE,2023-07-09,2023-07-09
SYNTH-ONC-001,EX,SYNTH-ONC-001-0037,13,FULVESTRANT,500,mg,INTRAMUSCULAR,ONCE,2023-08-06,2023-08-06
SYNTH-ONC-001,EX,SYNTH-ONC-001-0037,14,FULVESTRANT,500,mg,INTRAMUSCULAR,ONCE,2023-09-03,2023-09-03
SYNTH-ONC-001,EX,SYNTH-ONC-001-0037,15,FULVESTRANT,500,mg,INTRAMUSCULAR,ONCE,2023-10-01,2023-10-01
SYNTH-ONC-001,EX,SYNTH-ONC-001-0037,16,FULVESTRANT,500,mg,INTRAMUSCULAR,ONCE,2023-10-29,2023-10-29
SYNTH-ONC-001,EX,SYNTH-ONC-001-0037,17,FULVESTRANT,500,mg,INTRAMUSCULAR,ONCE,2023-11-26,2023-11-26
SYNTH-ONC-001,EX,SYNTH-ONC-001-0037,18,FULVESTRANT,500,mg,INTRAMUSCULAR,ONCE,2023-12-24,2023-12-24
SYNTH-ONC-001,EX,SYNTH-ONC-001-0037,19,FULVESTRANT,500,mg,INTRAMUSCULAR,ONCE,2024-01-21,2024-01-21
SYNTH-ONC-001,EX,SYNTH-ONC-001-0037,20,FULVESTRANT,500,mg,INTRAMUSCULAR,ONCE,2024-02-18,2024-02-18
SYNTH-ONC-001,EX,SYNTH-ONC-001-0037,21,FULVESTRANT,500,mg,INTRAMUSCULAR,ONCE,2024-03-17,2024-03-17
SYNTH-ONC-001,EX,SYNTH-ONC-001-0037,22,FULVESTRANT,500,mg,INTRAMUSCULAR,ONCE,2024-04-14,2024-04-14
SYNTH-ONC-001,EX,SYNTH-ONC-001-0037,23,PLACEBO,10,mg,ORAL,QD,2022-10-02,2024-05-09
SYNTH-ONC-001,EX,SYNTH-ONC-001-0038,1,FULVESTRANT,500,mg,INTRAMUSCULAR,ONCE,2022-07-05,2022-07-05
SYNTH-ONC-001,EX,SYNTH-ONC-001-0038,2,FULVESTRANT,500,mg,INTRAMUSCULAR,ONCE,2022-07-19,2022-07-19
SYNTH-ONC-001,EX,SYNTH-ONC-001-0038,3,FULVESTRANT,500,mg,INTRAMUSCULAR,ONCE,2022-08-02,2022-08-02
SYNTH-ONC-001,EX,SYNTH-ONC-001-0038,4,FULVESTRANT,500,mg,INTRAMUSCULAR,ONCE,2022-08-30,2022-08-30
SYNTH-ONC-001,EX,SYNTH-ONC-001-0038,5,FULVESTRANT,500,mg,INTRAMUSCULAR,ONCE,2022-09-27,2022-09-27
SYNTH-ONC-001,EX,SYNTH-ONC-001-0038,6,FULVESTRANT,500,mg,INTRAMUSCULAR,ONCE,2022-10-25,2022-10-25
SYNTH-ONC-001,EX,SYNTH-ONC-001-0038,7,FULVESTRANT,500,mg,INTRAMUSCULAR,ONCE,2022-11-22,2022-11-22
SYNTH-ONC-001,EX,SYNTH-ONC-001-0038,8,FULVESTRANT,500,mg,INTRAMUSCULAR,ONCE,2022-12-20,2022-12-20
SYNTH-ONC-001,EX,SYNTH-ONC-001-0038,9,FULVESTRANT,500,mg,INTRAMUSCULAR,ONCE,2023-01-17,2023-01-17
SYNTH-ONC-001,EX,SYNTH-ONC-001-0038,10,FULVESTRANT,500,mg,INTRAMUSCULAR,ONCE,2023-02-14,2023-02-14
SYNTH-ONC-001,EX,SYNTH-ONC-001-0038,11,FULVESTRANT,500,mg,INTRAMUSCULAR,ONCE,2023-03-14,2023-03-14
SYNTH-ONC-001,EX,SYNTH-ONC-001-0038,12,FULVESTRANT,500,mg,INTRAMUSCULAR,ONCE,2023-04-11,2023-04-11
SYNTH-ONC-001,EX,SYNTH-ONC-001-0038,13,FULVESTRANT,500,mg,INTRAMUSCULAR,ONCE,2023-05-09,2023-05-09
SYNTH-ONC-001,EX,SYNTH-ONC-001-0038,14,FULVESTRANT,500,mg,INTRAMUSCULAR,ONCE,2023-06-06,2023-06-06
SYNTH-ONC-001,EX,SYNTH-ONC-001-0038,15,FULVESTRANT,500,mg,INTRAMUSCULAR,ONCE,2023-07-04,2023-07-04
SYNTH-ONC-001,EX,SYNTH-ONC-001-0038,16,PLACEBO,10,mg,ORAL,QD,2022-07-05,2023-07-25
SYNTH-ONC-001,EX,SYNTH-ONC-001-0039,1,FULVESTRANT,500,mg,INTRAMUSCULAR,ONCE,2021-12-04,2021-12-04
SYNTH-ONC-001,EX,SYNTH-ONC-001-0039,2,FULVESTRANT,500,mg,INTRAMUSCULAR,ONCE,2021-12-18,2021-12-18
SYNTH-ONC-001,EX,SYNTH-ONC-001-0039,3,FULVESTRANT,500,mg,INTRAMUSCULAR,ONCE,2022-01-01,2022-01-01
SYNTH-ONC-001,EX,SYNTH-ONC-001-0039,4,FULVESTRANT,500,mg,INTRAMUSCULAR,ONCE,2022-01-29,2022-01-29
SYNTH-ONC-001,EX,SYNTH-ONC-001-0039,5,FULVESTRANT,500,mg,INTRAMUSCULAR,ONCE,2022-02-26,2022-02-26
SYNTH-ONC-001,EX,SYNTH-ONC-001-0039,6,FULVESTRANT,500,mg,INTRAMUSCULAR,ONCE,2022-03-26,2022-03-26
SYNTH-ONC-001,EX,SYNTH-ONC-001-0039,7,FULVESTRANT,500,mg,INTRAMUSCULAR,ONCE,2022-04-23,2022-04-23
SYNTH-ONC-001,EX,SYNTH-ONC-001-0039,8,FULVESTRANT,500,mg,INTRAMUSCULAR,ONCE,2022-05-21,2022-05-21
SYNTH-ONC-001,EX,SYNTH-ONC-001-0039,9,PLACEBO,10,mg,ORAL,QD,2021-12-04,2022-06-02
SYNTH-ONC-001,EX,SYNTH-ONC-001-0040,1,FULVESTRANT,500,mg,INTRAMUSCULAR,ONCE,2022-10-03,2022-10-03
SYNTH-ONC-001,EX,SYNTH-ONC-001-0040,2,FULVESTRANT,500,mg,INTRAMUSCULAR,ONCE,2022-10-17,2022-10-17
SYNTH-ONC-001,EX,SYNTH-ONC-001-0040,3,FULVESTRANT,500,mg,INTRAMUSCULAR,ONCE,2022-10-31,2022-10-31
SYNTH-ONC-001,EX,SYNTH-ONC-001-0040,4,FULVESTRANT,500,mg,INTRAMUSCULAR,ONCE,2022-11-28,2022-11-28
SYNTH-ONC-001,EX,SYNTH-ONC-001-0040,5,FULVESTRANT,500,mg,INTRAMUSCULAR,ONCE,2022-12-26,2022-12-26
SYNTH-ONC-001,EX,SYNTH-ONC-001-0040,6,FULVESTRANT,500,mg,INTRAMUSCULAR,ONCE,2023-01-23,2023-01-23
SYNTH-ONC-001,EX,SYNTH-ONC-001-0040,7,FULVESTRANT,500,mg,INTRAMUSCULAR,ONCE,2023-02-20,2023-02-20
SYNTH-ONC-001,EX,SYNTH-ONC-001-0040,8,FULVESTRANT,500,mg,INTRAMUSCULAR,ONCE,2023-03-20,2023-03-20
SYNTH-ONC-001,EX,SYNTH-ONC-001-0040,9,FULVESTRANT,500,mg,INTRAMUSCULAR,ONCE,2023-04-17,2023-04-17
SYNTH-ONC-001,EX,SYNTH-ONC-001-0040,10,FULVESTRANT,500,mg,INTRAMUSCULAR,ONCE,2023-05-15,2023-05-15
SYNTH-ONC-001,EX,SYNTH-ONC-001-0040,11,FULVESTRANT,500,mg,INTRAMUSCULAR,ONCE,2023-06-12,2023-06-12
SYNTH-ONC-001,EX,SYNTH-ONC-001-0040,12,FULVESTRANT,500,mg,INTRAMUSCULAR,ONCE,2023-07-10,2023-07-10
SYNTH-ONC-001,EX,SYNTH-ONC-001-0040,13,FULVESTRANT,500,mg,INTRAMUSCULAR,ONCE,2023-08-07,2023-08-07
SYNTH-ONC-001,EX,SYNTH-ONC-001-0040,14,FULVESTRANT,500,mg,INTRAMUSCULAR,ONCE,2023-09-04,2023-09-04
SYNTH-ONC-001,EX,SYNTH-ONC-001-0040,15,FULVESTRANT,500,mg,INTRAMUSCULAR,ONCE,2023-10-02,2023-10-02
SYNTH-ONC-001,EX,SYNTH-ONC-001-0040,16,FULVESTRANT,500,mg,INTRAMUSCULAR,ONCE,2023-10-30,2023-10-30
SYNTH-ONC-001,EX,SYNTH-ONC-001-0040,17,FULVESTRANT,500,mg,INTRAMUSCULAR,ONCE,2023-11-27,2023-11-27
SYNTH-ONC-001,EX,SYNTH-ONC-001-0040,18,FULVESTRANT,500,mg,INTRAMUSCULAR,ONCE,2023-12-25,2023-12-25
SYNTH-ONC-001,EX,SYNTH-ONC-001-0040,19,FULVESTRANT,500,mg,INTRAMUSCULAR,ONCE,2024-01-22,2024-01-22
SYNTH-ONC-001,EX,SYNTH-ONC-001-0040,20,EVEROLIMUS,10,mg,ORAL,QD,2022-10-03,2024-02-18
SYNTH-ONC-001,EX,SYNTH-ONC-001-0041,1,FULVESTRANT,500,mg,INTRAMUSCULAR,ONCE,2022-04-18,2022-04-18
SYNTH-ONC-001,EX,SYNTH-ONC-001-0041,2,FULVESTRANT,500,mg,INTRAMUSCULAR,ONCE,2022-05-02,2022-05-02
SYNTH-ONC-001,EX,SYNTH-ONC-001-0041,3,FULVESTRANT,500,mg,INTRAMUSCULAR,ONCE,2022-05-16,2022-05-16
SYNTH-ONC-001,EX,SYNTH-ONC-001-0041,4,FULVESTRANT,500,mg,INTRAMUSCULAR,ONCE,2022-06-13,2022-06-13
SYNTH-ONC-001,EX,SYNTH-ONC-001-0041,5,FULVESTRANT,500,mg,INTRAMUSCULAR,ONCE,2022-07-11,2022-07-11
SYNTH-ONC-001,EX,SYNTH-ONC-001-0041,6,FULVESTRANT,500,mg,INTRAMUSCULAR,ONCE,2022-08-08,2022-08-08
SYNTH-ONC-001,EX,SYNTH-ONC-001-0041,7,FULVESTRANT,500,mg,INTRAMUSCULAR,ONCE,2022-09-05,2022-09-05
SYNTH-ONC-001,EX,SYNTH-ONC-001-0041,8,FULVESTRANT,500,mg,INTRAMUSCULAR,ONCE,2022-10-03,2022-10-03
SYNTH-ONC-001,EX,SYNTH-ONC-001-0041,9,FULVESTRANT,500,mg,INTRAMUSCULAR,ONCE,2022-10-31,2022-10-31
SYNTH-ONC-001,EX,SYNTH-ONC-001-0041,10,FULVESTRANT,500,mg,INTRAMUSCULAR,ONCE,2022-11-28,2022-11-28
SYNTH-ONC-001,EX,SYNTH-ONC-001-0041,11,EVEROLIMUS,10,mg,ORAL,QD,2022-04-18,2022-12-20
SYNTH-ONC-001,EX,SYNTH-ONC-001-0042,1,FULVESTRANT,500,mg,INTRAMUSCULAR,ONCE,2021-05-31,2021-05-31
SYNTH-ONC-001,EX,SYNTH-ONC-001-0042,2,FULVESTRANT,500,mg,INTRAMUSCULAR,ONCE,2021-06-14,2021-06-14
SYNTH-ONC-001,EX,SYNTH-ONC-001-0042,3,FULVESTRANT,500,mg,INTRAMUSCULAR,ONCE,2021-06-28,2021-06-28
SYNTH-ONC-001,EX,SYNTH-ONC-001-0042,4,FULVESTRANT,500,mg,INTRAMUSCULAR,ONCE,2021-07-26,2021-07-26
SYNTH-ONC-001,EX,SYNTH-ONC-001-0042,5,FULVESTRANT,500,mg,INTRAMUSCULAR,ONCE,2021-08-23,2021-08-23
SYNTH-ONC-001,EX,SYNTH-ONC-001-0042,6,FULVESTRANT,500,mg,INTRAMUSCULAR,ONCE,2021-09-20,2021-09-20
SYNTH-ONC-001,EX,SYNTH-ONC-001-0042,7,FULVESTRANT,500,mg,INTRAMUSCULAR,ONCE,2021-10-18,2021-10-18
SYNTH-ONC-001,EX,SYNTH-ONC-001-0042,8,FULVESTRANT,500,mg,INTRAMUSCULAR,ONCE,2021-11-15,2021-11-15
SYNTH-ONC-001,EX,SYNTH-ONC-001-0042,9,FULVESTRANT,500,mg,INTRAMUSCULAR,ONCE,2021-12-13,2021-12-13
SYNTH-ONC-001,EX,SYNTH-ONC-001-0042,10,FULVESTRANT,500,mg,INTRAMUSCULAR,ONCE,2022-01-10,2022-01-10
SYNTH-ONC-001,EX,SYNTH-ONC-001-0042,11,PLACEBO,10,mg,ORAL,QD,2021-05-31,2022-02-02
SYNTH-ONC-001,EX,SYNTH-ONC-001-0043,1,FULVESTRANT,500,mg,INTRAMUSCULAR,ONCE,2022-02-19,2022-02-19
SYNTH-ONC-001,EX,SYNTH-ONC-001-0043,2,FULVESTRANT,500,mg,INTRAMUSCULAR,ONCE,2022-03-05,2022-03-05
SYNTH-ONC-001,EX,SYNTH-ONC-001-0043,3,FULVESTRANT,500,mg,INTRAMUSCULAR,ONCE,2022-03-19,2022-03-19
SYNTH-ONC-001,EX,SYNTH-ONC-001-0043,4,FULVESTRANT,500,mg,INTRAMUSCULAR,ONCE,2022-04-16,2022-04-16
SYNTH-ONC-001,EX,SYNTH-ONC-001-0043,5,EVEROLIMUS,10,mg,ORAL,QD,2022-02-19,2022-05-07
SYNTH-ONC-001,EX,SYNTH-ONC-001-0044,1,FULVESTRANT,500,mg,INTRAMUSCULAR,ONCE,2021-10-25,2021-10-25
SYNTH-ONC-001,EX,SYNTH-ONC-001-0044,2,FULVESTRANT,500,mg,INTRAMUSCULAR,ONCE,2021-11-08,2021-11-08
SYNTH-ONC-001,EX,SYNTH-ONC-001-0044,3,FULVESTRANT,500,mg,INTRAMUSCULAR,ONCE,2021-11-22,2021-11-22
SYNTH-ONC-001,EX,SYNTH-ONC-001-0044,4,FULVESTRANT,500,mg,INTRAMUSCULAR,ONCE,2021-12-20,2021-12-20
SYNTH-ONC-001,EX,SYNTH-ONC-001-0044,5,FULVESTRANT,500,mg,INTRAMUSCULAR,ONCE,2022-01-17,2022-01-17
SYNTH-ONC-001,EX,SYNTH-ONC-001-0044,6,FULVESTRANT,500,mg,INTRAMUSCULAR,ONCE,2022-02-14,2022-02-14
SYNTH-ONC-001,EX,SYNTH-ONC-001-0044,7,FULVESTRANT,500,mg,INTRAMUSCULAR,ONCE,2022-03-14,2022-03-14
SYNTH-ONC-001,EX,SYNTH-ONC-001-0044,8,FULVESTRANT,500,mg,INTRAMUSCULAR,ONCE,2022-04-11,2022-04-11
SYNTH-ONC-001,EX,SYNTH-ONC-001-0044,9,FULVESTRANT,500,mg,INTRAMUSCULAR,ONCE,2022-05-09,2022-05-09
SYNTH-ONC-001,EX,SYNTH-ONC-001-0044,10,FULVESTRANT,500,mg,INTRAMUSCULAR,ONCE,2022-06-06,2022-06-06
SYNTH-ONC-001,EX,SYNTH-ONC-001-0044,11,FULVESTRANT,500,mg,INTRAMUSCULAR,ONCE,2022-07-04,2022-07-04
SYNTH-ONC-001,EX,SYNTH-ONC-001-0044,12,FULVESTRANT,500,mg,INTRAMUSCULAR,ONCE,2022-08-01,2022-08-01
SYNTH-ONC-001,EX,SYNTH-ONC-001-0044,13,FULVESTRANT,500,mg,INTRAMUSCULAR,ONCE,2022-08-29,2022-08-29
SYNTH-ONC-001,EX,SYNTH-ONC-001-0044,14,FULVESTRANT,500,mg,INTRAMUSCULAR,ONCE,2022-09-26,2022-09-26
SYNTH-ONC-001,EX,SYNTH-ONC-001-0044,15,EVEROLIMUS,10,mg,ORAL,QD,2021-10-25,2022-10-16
SYNTH-ONC-001,EX,SYNTH-ONC-001-0045,1,FULVESTRANT,500,mg,INTRAMUSCULAR,ONCE,2022-09-03,2022-09-03
SYNTH-ONC-001,EX,SYNTH-ONC-001-0045,2,FULVESTRANT,500,mg,INTRAMUSCULAR,ONCE,2022-09-17,2022-09-17
SYNTH-ONC-001,EX,SYNTH-ONC-001-0045,3,FULVESTRANT,500,mg,INTRAMUSCULAR,ONCE,2022-10-01,2022-10-01
SYNTH-ONC-001,EX,SYNTH-ONC-001-0045,4,FULVESTRANT,500,mg,INTRAMUSCULAR,ONCE,2022-10-29,2022-10-29
SYNTH-ONC-001,EX,SYNTH-ONC-001-0045,5,FULVESTRANT,500,mg,INTRAMUSCULAR,ONCE,2022-11-26,2022-11-26
SYNTH-ONC-001,EX,SYNTH-ONC-001-0045,6,FULVESTRANT,500,mg,INTRAMUSCULAR,ONCE,2022-12-24,2022-12-24
SYNTH-ONC-001,EX,SYNTH-ONC-001-0045,7,FULVESTRANT,500,mg,INTRAMUSCULAR,ONCE,2023-01-21,2023-01-21
SYNTH-ONC-001,EX,SYNTH-ONC-001-0045,8,FULVESTRANT,500,mg,INTRAMUSCULAR,ONCE,2023-02-18,2023-02-18
SYNTH-ONC-001,EX,SYNTH-ONC-001-0045,9,FULVESTRANT,500,mg,INTRAMUSCULAR,ONCE,2023-03-18,2023-03-18
SYNTH-ONC-001,EX,SYNTH-ONC-001-0045,10,FULVESTRANT,500,mg,INTRAMUSCULAR,ONCE,2023-04-15,2023-04-15
SYNTH-ONC-001,EX,SYNTH-ONC-001-0045,11,FULVESTRANT,500,mg,INTRAMUSCULAR,ONCE,2023-05-13,2023-05-13
SYNTH-ONC-001,EX,SYNTH-ONC-001-0045,12,FULVESTRANT,500,mg,INTRAMUSCULAR,ONCE,2023-06-10,2023-06-10
SYNTH-ONC-001,EX,SYNTH-ONC-001-0045,13,FULVESTRANT,500,mg,INTRAMUSCULAR,ONCE,2023-07-08,2023-07-08
SYNTH-ONC-001,EX,SYNTH-ONC-001-0045,14,FULVESTRANT,500,mg,INTRAMUSCULAR,ONCE,2023-08-05,2023-08-05
SYNTH-ONC-001,EX,SYNTH-ONC-001-0045,15,PLACEBO,10,mg,ORAL,QD,2022-09-03,2023-08-17
SYNTH-ONC-001,EX,SYNTH-ONC-001-0046,1,FULVESTRANT,500,mg,INTRAMUSCULAR,ONCE,2021-09-20,2021-09-20
SYNTH-ONC-001,EX,SYNTH-ONC-001-0046,2,FULVESTRANT,500,mg,INTRAMUSCULAR,ONCE,2021-10-04,2021-10-04
SYNTH-ONC-001,EX,SYNTH-ONC-001-0046,3,FULVESTRANT,500,mg,INTRAMUSCULAR,ONCE,2021-10-18,2021-10-18
SYNTH-ONC-001,EX,SYNTH-ONC-001-0046,4,FULVESTRANT,500,mg,INTRAMUSCULAR,ONCE,2021-11-15,2021-11-15
SYNTH-ONC-001,EX,SYNTH-ONC-001-0046,5,FULVESTRANT,500,mg,INTRAMUSCULAR,ONCE,2021-12-13,2021-12-13
SYNTH-ONC-001,EX,SYNTH-ONC-001-0046,6,FULVESTRANT,500,mg,INTRAMUSCULAR,ONCE,2022-01-10,2022-01-10
SYNTH-ONC-001,EX,SYNTH-ONC-001-0046,7,FULVESTRANT,500,mg,INTRAMUSCULAR,ONCE,2022-02-07,2022-02-07
SYNTH-ONC-001,EX,SYNTH-ONC-001-0046,8,FULVESTRANT,500,mg,INTRAMUSCULAR,ONCE,2022-03-07,2022-03-07
SYNTH-ONC-001,EX,SYNTH-ONC-001-0046,9,FULVESTRANT,500,mg,INTRAMUSCULAR,ONCE,2022-04-04,2022-04-04
SYNTH-ONC-001,EX,SYNTH-ONC-001-0046,10,FULVESTRANT,500,mg,INTRAMUSCULAR,ONCE,2022-05-02,2022-05-02
SYNTH-ONC-001,EX,SYNTH-ONC-001-0046,11,FULVESTRANT,500,mg,INTRAMUSCULAR,ONCE,2022-05-30,2022-05-30
SYNTH-ONC-001,EX,SYNTH-ONC-001-0046,12,PLACEBO,10,mg,ORAL,QD,2021-09-20,2022-05-30
SYNTH-ONC-001,EX,SYNTH-ONC-001-0047,1,FULVESTRANT,500,mg,INTRAMUSCULAR,ONCE,2021-05-24,2021-05-24
SYNTH-ONC-001,EX,SYNTH-ONC-001-0047,2,FULVESTRANT,500,mg,INTRAMUSCULAR,ONCE,2021-06-07,2021-06-07
SYNTH-ONC-001,EX,SYNTH-ONC-001-0047,3,FULVESTRANT,500,mg,INTRAMUSCULAR,ONCE,2021-06-21,2021-06-21
SYNTH-ONC-001,EX,SYNTH-ONC-001-0047,4,FULVESTRANT,500,mg,INTRAMUSCULAR,ONCE,2021-07-19,2021-07-19
SYNTH-ONC-001,EX,SYNTH-ONC-001-0047,5,FULVESTRANT,500,mg,INTRAMUSCULAR,ONCE,2021-08-16,2021-08-16
SYNTH-ONC-001,EX,SYNTH-ONC-001-0047,6,FULVESTRANT,500,mg,INTRAMUSCULAR,ONCE,2021-09-13,2021-09-13
SYNTH-ONC-001,EX,SYNTH-ONC-001-0047,7,FULVESTRANT,500,mg,INTRAMUSCULAR,ONCE,2021-10-11,2021-10-11
SYNTH-ONC-001,EX,SYNTH-ONC-001-0047,8,FULVESTRANT,500,mg,INTRAMUSCULAR,ONCE,2021-11-08,2021-11-08
SYNTH-ONC-001,EX,SYNTH-ONC-001-0047,9,FULVESTRANT,500,mg,INTRAMUSCULAR,ONCE,2021-12-06,2021-12-06
SYNTH-ONC-001,EX,SYNTH-ONC-001-0047,10,FULVESTRANT,500,mg,INTRAMUSCULAR,ONCE,2022-01-03,2022-01-03
SYNTH-ONC-001,EX,SYNTH-ONC-001-0047,11,FULVESTRANT,500,mg,INTRAMUSCULAR,ONCE,2022-01-31,2022-01-31
SYNTH-ONC-001,EX,SYNTH-ONC-001-0047,12,FULVESTRANT,500,mg,INTRAMUSCULAR,ONCE,2022-02-28,2022-02-28
SYNTH-ONC-001,EX,SYNTH-ONC-001-0047,13,FULVESTRANT,500,mg,INTRAMUSCULAR,ONCE,2022-03-28,2022-03-28
SYNTH-ONC-001,EX,SYNTH-ONC-001-0047,14,FULVESTRANT,500,mg,INTRAMUSCULAR,ONCE,2022-04-25,2022-04-25
SYNTH-ONC-001,EX,SYNTH-ONC-001-0047,15,FULVESTRANT,500,mg,INTRAMUSCULAR,ONCE,2022-05-23,2022-05-23
SYNTH-ONC-001,EX,SYNTH-ONC-001-0047,16,FULVESTRANT,500,mg,INTRAMUSCULAR,ONCE,2022-06-20,2022-06-20
SYNTH-ONC-001,EX,SYNTH-ONC-001-0047,17,FULVESTRANT,500,mg,INTRAMUSCULAR,ONCE,2022-07-18,2022-07-18
SYNTH-ONC-001,EX,SYNTH-ONC-001-0047,18,FULVESTRANT,500,mg,INTRAMUSCULAR,ONCE,2022-08-15,2022-08-15
SYNTH-ONC-001,EX,SYNTH-ONC-001-0047,19,FULVESTRANT,500,mg,INTRAMUSCULAR,ONCE,2022-09-12,2022-09-12
SYNTH-ONC-001,EX,SYNTH-ONC-001-0047,20,FULVESTRANT,500,mg,INTRAMUSCULAR,ONCE,2022-10-10,2022-10-10
SYNTH-ONC-001,EX,SYNTH-ONC-001-0047,21,FULVESTRANT,500,mg,INTRAMUSCULAR,ONCE,2022-11-07,2022-11-07
SYNTH-ONC-001,EX,SYNTH-ONC-001-0047,22,EVEROLIMUS,10,mg,ORAL,QD,2021-05-24,2022-11-17
SYNTH-ONC-001,EX,SYNTH-ONC-001-0048,1,FULVESTRANT,500,mg,INTRAMUSCULAR,ONCE,2021-12-12,2021-12-12
SYNTH-ONC-001,EX,SYNTH-ONC-001-0048,2,FULVESTRANT,500,mg,INTRAMUSCULAR,ONCE,2021-12-26,2021-12-26
SYNTH-ONC-001,EX,SYNTH-ONC-001-0048,3,FULVESTRANT,500,mg,INTRAMUSCULAR,ONCE,2022-01-09,2022-01-09
SYNTH-ONC-001,EX,SYNTH-ONC-001-0048,4,FULVESTRANT,500,mg,INTRAMUSCULAR,ONCE,2022-02-06,2022-02-06
SYNTH-ONC-001,EX,SYNTH-ONC-001-0048,5,FULVESTRANT,500,mg,INTRAMUSCULAR,ONCE,2022-03-06,2022-03-06
SYNTH-ONC-001,EX,SYNTH-ONC-001-0048,6,FULVESTRANT,500,mg,INTRAMUSCULAR,ONCE,2022-04-03,2022-04-03
SYNTH-ONC-001,EX,SYNTH-ONC-001-0048,7,EVEROLIMUS,10,mg,ORAL,QD,2021-12-12,2022-04-20
SYNTH-ONC-001,EX,SYNTH-ONC-001-0049,1,FULVESTRANT,500,mg,INTRAMUSCULAR,ONCE,2022-09-16,2022-09-16
SYNTH-ONC-001,EX,SYNTH-ONC-001-0049,2,FULVESTRANT,500,mg,INTRAMUSCULAR,ONCE,2022-09-30,2022-09-30
SYNTH-ONC-001,EX,SYNTH-ONC-001-0049,3,FULVESTRANT,500,mg,INTRAMUSCULAR,ONCE,2022-10-14,2022-10-14
SYNTH-ONC-001,EX,SYNTH-ONC-001-0049,4,FULVESTRANT,500,mg,INTRAMUSCULAR,ONCE,2022-11-11,2022-11-11
SYNTH-ONC-001,EX,SYNTH-ONC-001-0049,5,FULVESTRANT,500,mg,INTRAMUSCULAR,ONCE,2022-12-09,2022-12-09
SYNTH-ONC-001,EX,SYNTH-ONC-001-0049,6,FULVESTRANT,500,mg,INTRAMUSCULAR,ONCE,2023-01-06,2023-01-06
SYNTH-ONC-001,EX,SYNTH-ONC-001-0049,7,FULVESTRANT,500,mg,INTRAMUSCULAR,ONCE,2023-02-03,2023-02-03
SYNTH-ONC-001,EX,SYNTH-ONC-001-0049,8,FULVESTRANT,500,mg,INTRAMUSCULAR,ONCE,2023-03-03,2023-03-03
SYNTH-ONC-001,EX,SYNTH-ONC-001-0049,9,FULVESTRANT,500,mg,INTRAMUSCULAR,ONCE,2023-03-31,2023-03-31
SYNTH-ONC-001,EX,SYNTH-ONC-001-0049,10,FULVESTRANT,500,mg,INTRAMUSCULAR,ONCE,2023-04-28,2023-04-28
SYNTH-ONC-001,EX,SYNTH-ONC-001-0049,11,PLACEBO,10,mg,ORAL,QD,2022-09-16,2023-05-12
SYNTH-ONC-001,EX,SYNTH-ONC-001-0050,1,FULVESTRANT,500,mg,INTRAMUSCULAR,ONCE,2022-07-26,2022-07-26
SYNTH-ONC-001,EX,SYNTH-ONC-001-0050,2,FULVESTRANT,500,mg,INTRAMUSCULAR,ONCE,2022-08-09,2022-08-09
SYNTH-ONC-001,EX,SYNTH-ONC-001-0050,3,FULVESTRANT,500,mg,INTRAMUSCULAR,ONCE,2022-08-23,2022-08-23
SYNTH-ONC-001,EX,SYNTH-ONC-001-0050,4,FULVESTRANT,500,mg,INTRAMUSCULAR,ONCE,2022-09-20,2022-09-20
SYNTH-ONC-001,EX,SYNTH-ONC-001-0050,5,FULVESTRANT,500,mg,INTRAMUSCULAR,ONCE,2022-10-18,2022-10-18
SYNTH-ONC-001,EX,SYNTH-ONC-001-0050,6,FULVESTRANT,500,mg,INTRAMUSCULAR,ONCE,2022-11-15,2022-11-15
SYNTH-ONC-001,EX,SYNTH-ONC-001-0050,7,FULVESTRANT,500,mg,INTRAMUSCULAR,ONCE,2022-12-13,2022-12-13
SYNTH-ONC-001,EX,SYNTH-ONC-001-0050,8,FULVESTRANT,500,mg,INTRAMUSCULAR,ONCE,2023-01-10,2023-01-10
SYNTH-ONC-001,EX,SYNTH-ONC-001-0050,9,FULVESTRANT,500,mg,INTRAMUSCULAR,ONCE,2023-02-07,2023-02-07
SYNTH-ONC-001,EX,SYNTH-ONC-001-0050,10,FULVESTRANT,500,mg,INTRAMUSCULAR,ONCE,2023-03-07,2023-03-07
SYNTH-ONC-001,EX,SYNTH-ONC-001-0050,11,EVEROLIMUS,10,mg,ORAL,QD,2022-07-26,2023-03-16
SYNTH-ONC-001,EX,SYNTH-ONC-001-0051,1,FULVESTRANT,500,mg,INTRAMUSCULAR,ONCE,2021-01-02,2021-01-02
SYNTH-ONC-001,EX,SYNTH-ONC-001-0051,2,FULVESTRANT,500,mg,INTRAMUSCULAR,ONCE,2021-01-16,2021-01-16
SYNTH-ONC-001,EX,SYNTH-ONC-001-0051,3,FULVESTRANT,500,mg,INTRAMUSCULAR,ONCE,2021-01-30,2021-01-30
SYNTH-ONC-001,EX,SYNTH-ONC-001-0051,4,FULVESTRANT,500,mg,INTRAMUSCULAR,ONCE,2021-02-27,2021-02-27
SYNTH-ONC-001,EX,SYNTH-ONC-001-0051,5,FULVESTRANT,500,mg,INTRAMUSCULAR,ONCE,2021-03-27,2021-03-27
SYNTH-ONC-001,EX,SYNTH-ONC-001-0051,6,PLACEBO,10,mg,ORAL,QD,2021-01-02,2021-04-21
SYNTH-ONC-001,EX,SYNTH-ONC-001-0052,1,FULVESTRANT,500,mg,INTRAMUSCULAR,ONCE,2021-10-31,2021-10-31
SYNTH-ONC-001,EX,SYNTH-ONC-001-0052,2,FULVESTRANT,500,mg,INTRAMUSCULAR,ONCE,2021-11-14,2021-11-14
SYNTH-ONC-001,EX,SYNTH-ONC-001-0052,3,FULVESTRANT,500,mg,INTRAMUSCULAR,ONCE,2021-11-28,2021-11-28
SYNTH-ONC-001,EX,SYNTH-ONC-001-0052,4,FULVESTRANT,500,mg,INTRAMUSCULAR,ONCE,2021-12-26,2021-12-26
SYNTH-ONC-001,EX,SYNTH-ONC-001-0052,5,FULVESTRANT,500,mg,INTRAMUSCULAR,ONCE,2022-01-23,2022-01-23
SYNTH-ONC-001,EX,SYNTH-ONC-001-0052,6,FULVESTRANT,500,mg,INTRAMUSCULAR,ONCE,2022-02-20,2022-02-20
SYNTH-ONC-001,EX,SYNTH-ONC-001-0052,7,FULVESTRANT,500,mg,INTRAMUSCULAR,ONCE,2022-03-20,2022-03-20
SYNTH-ONC-001,EX,SYNTH-ONC-001-0052,8,FULVESTRANT,500,mg,INTRAMUSCULAR,ONCE,2022-04-17,2022-04-17
SYNTH-ONC-001,EX,SYNTH-ONC-001-0052,9,FULVESTRANT,500,mg,INTRAMUSCULAR,ONCE,2022-05-15,2022-05-15
SYNTH-ONC-001,EX,SYNTH-ONC-001-0052,10,FULVESTRANT,500,mg,INTRAMUSCULAR,ONCE,2022-06-12,2022-06-12
SYNTH-ONC-001,EX,SYNTH-ONC-001-0052,11,FULVESTRANT,500,mg,INTRAMUSCULAR,ONCE,2022-07-10,2022-07-10
SYNTH-ONC-001,EX,SYNTH-ONC-001-0052,12,FULVESTRANT,500,mg,INTRAMUSCULAR,ONCE,2022-08-07,2022-08-07
SYNTH-ONC-001,EX,SYNTH-ONC-001-0052,13,FULVESTRANT,500,mg,INTRAMUSCULAR,ONCE,2022-09-04,2022-09-04
SYNTH-ONC-001,EX,SYNTH-ONC-001-0052,14,PLACEBO,10,mg,ORAL,QD,2021-10-31,2022-09-15
SYNTH-ONC-001,EX,SYNTH-ONC-001-0053,1,FULVESTRANT,500,mg,INTRAMUSCULAR,ONCE,2021-09-11,2021-09-11
SYNTH-ONC-001,EX,SYNTH-ONC-001-0053,2,FULVESTRANT,500,mg,INTRAMUSCULAR,ONCE,2021-09-25,2021-09-25
SYNTH-ONC-001,EX,SYNTH-ONC-001-0053,3,FULVESTRANT,500,mg,INTRAMUSCULAR,ONCE,2021-10-09,2021-10-09
SYNTH-ONC-001,EX,SYNTH-ONC-001-0053,4,FULVESTRANT,500,mg,INTRAMUSCULAR,ONCE,2021-11-06,2021-11-06
SYNTH-ONC-001,EX,SYNTH-ONC-001-0053,5,FULVESTRANT,500,mg,INTRAMUSCULAR,ONCE,2021-12-04,2021-12-04
SYNTH-ONC-001,EX,SYNTH-ONC-001-0053,6,FULVESTRANT,500,mg,INTRAMUSCULAR,ONCE,2022-01-01,2022-01-01
SYNTH-ONC-001,EX,SYNTH-ONC-001-0053,7,FULVESTRANT,500,mg,INTRAMUSCULAR,ONCE,2022-01-29,2022-01-29
SYNTH-ONC-001,EX,SYNTH-ONC-001-0053,8,FULVESTRANT,500,mg,INTRAMUSCULAR,ONCE,2022-02-26,2022-02-26
SYNTH-ONC-001,EX,SYNTH-ONC-001-0053,9,FULVESTRANT,500,mg,INTRAMUSCULAR,ONCE,2022-03-26,2022-03-26
SYNTH-ONC-001,EX,SYNTH-ONC-001-0053,10,FULVESTRANT,500,mg,INTRAMUSCULAR,ONCE,2022-04-23,2022-04-23
SYNTH-ONC-001,EX,SYNTH-ONC-001-0053,11,FULVESTRANT,500,mg,INTRAMUSCULAR,ONCE,2022-05-21,2022-05-21
SYNTH-ONC-001,EX,SYNTH-ONC-001-0053,12,FULVESTRANT,500,mg,INTRAMUSCULAR,ONCE,2022-06-18,2022-06-18
SYNTH-ONC-001,EX,SYNTH-ONC-001-0053,13,FULVESTRANT,500,mg,INTRAMUSCULAR,ONCE,2022-07-16,2022-07-16
SYNTH-ONC-001,EX,SYNTH-ONC-001-0053,14,FULVESTRANT,500,mg,INTRAMUSCULAR,ONCE,2022-08-13,2022-08-13
SYNTH-ONC-001,EX,SYNTH-ONC-001-0053,15,FULVESTRANT,500,mg,INTRAMUSCULAR,ONCE,2022-09-10,2022-09-10
SYNTH-ONC-001,EX,SYNTH-ONC-001-0053,16,FULVESTRANT,500,mg,INTRAMUSCULAR,ONCE,2022-10-08,2022-10-08
SYNTH-ONC-001,EX,SYNTH-ONC-001-0053,17,FULVESTRANT,500,mg,INTRAMUSCULAR,ONCE,2022-11-05,2022-11-05
SYNTH-ONC-001,EX,SYNTH-ONC-001-0053,18,EVEROLIMUS,10,mg,ORAL,QD,2021-09-11,2022-11-16
SYNTH-ONC-001,EX,SYNTH-ONC-001-0054,1,FULVESTRANT,500,mg,INTRAMUSCULAR,ONCE,2022-10-14,2022-10-14
SYNTH-ONC-001,EX,SYNTH-ONC-001-0054,2,FULVESTRANT,500,mg,INTRAMUSCULAR,ONCE,2022-10-28,2022-10-28
SYNTH-ONC-001,EX,SYNTH-ONC-001-0054,3,FULVESTRANT,500,mg,INTRAMUSCULAR,ONCE,2022-11-11,2022-11-11
SYNTH-ONC-001,EX,SYNTH-ONC-001-0054,4,FULVESTRANT,500,mg,INTRAMUSCULAR,ONCE,2022-12-09,2022-12-09
SYNTH-ONC-001,EX,SYNTH-ONC-001-0054,5,FULVESTRANT,500,mg,INTRAMUSCULAR,ONCE,2023-01-06,2023-01-06
SYNTH-ONC-001,EX,SYNTH-ONC-001-0054,6,FULVESTRANT,500,mg,INTRAMUSCULAR,ONCE,2023-02-03,2023-02-03
SYNTH-ONC-001,EX,SYNTH-ONC-001-0054,7,FULVESTRANT,500,mg,INTRAMUSCULAR,ONCE,2023-03-03,2023-03-03
SYNTH-ONC-001,EX,SYNTH-ONC-001-0054,8,FULVESTRANT,500,mg,INTRAMUSCULAR,ONCE,2023-03-31,2023-03-31
SYNTH-ONC-001,EX,SYNTH-ONC-001-0054,9,FULVESTRANT,500,mg,INTRAMUSCULAR,ONCE,2023-04-28,2023-04-28
SYNTH-ONC-001,EX,SYNTH-ONC-001-0054,10,FULVESTRANT,500,mg,INTRAMUSCULAR,ONCE,2023-05-26,2023-05-26
SYNTH-ONC-001,EX,SYNTH-ONC-001-0054,11,FULVESTRANT,500,mg,INTRAMUSCULAR,ONCE,2023-06-23,2023-06-23
SYNTH-ONC-001,EX,SYNTH-ONC-001-0054,12,FULVESTRANT,500,mg,INTRAMUSCULAR,ONCE,2023-07-21,2023-07-21
SYNTH-ONC-001,EX,SYNTH-ONC-001-0054,13,FULVESTRANT,500,mg,INTRAMUSCULAR,ONCE,2023-08-18,2023-08-18
SYNTH-ONC-001,EX,SYNTH-ONC-001-0054,14,FULVESTRANT,500,mg,INTRAMUSCULAR,ONCE,2023-09-15,2023-09-15
SYNTH-ONC-001,EX,SYNTH-ONC-001-0054,15,PLACEBO,10,mg,ORAL,QD,2022-10-14,2023-09-15
SYNTH-ONC-001,EX,SYNTH-ONC-001-0055,1,FULVESTRANT,500,mg,INTRAMUSCULAR,ONCE,2022-03-29,2022-03-29
SYNTH-ONC-001,EX,SYNTH-ONC-001-0055,2,FULVESTRANT,500,mg,INTRAMUSCULAR,ONCE,2022-04-12,2022-04-12
SYNTH-ONC-001,EX,SYNTH-ONC-001-0055,3,FULVESTRANT,500,mg,INTRAMUSCULAR,ONCE,2022-04-26,2022-04-26
SYNTH-ONC-001,EX,SYNTH-ONC-001-0055,4,FULVESTRANT,500,mg,INTRAMUSCULAR,ONCE,2022-05-24,2022-05-24
SYNTH-ONC-001,EX,SYNTH-ONC-001-0055,5,FULVESTRANT,500,mg,INTRAMUSCULAR,ONCE,2022-06-21,2022-06-21
SYNTH-ONC-001,EX,SYNTH-ONC-001-0055,6,FULVESTRANT,500,mg,INTRAMUSCULAR,ONCE,2022-07-19,2022-07-19
SYNTH-ONC-001,EX,SYNTH-ONC-001-0055,7,FULVESTRANT,500,mg,INTRAMUSCULAR,ONCE,2022-08-16,2022-08-16
SYNTH-ONC-001,EX,SYNTH-ONC-001-0055,8,PLACEBO,10,mg,ORAL,QD,2022-03-29,2022-08-20
SYNTH-ONC-001,EX,SYNTH-ONC-001-0056,1,FULVESTRANT,500,mg,INTRAMUSCULAR,ONCE,2021-02-06,2021-02-06
SYNTH-ONC-001,EX,SYNTH-ONC-001-0056,2,FULVESTRANT,500,mg,INTRAMUSCULAR,ONCE,2021-02-20,2021-02-20
SYNTH-ONC-001,EX,SYNTH-ONC-001-0056,3,FULVESTRANT,500,mg,INTRAMUSCULAR,ONCE,2021-03-06,2021-03-06
SYNTH-ONC-001,EX,SYNTH-ONC-001-0056,4,FULVESTRANT,500,mg,INTRAMUSCULAR,ONCE,2021-04-03,2021-04-03
SYNTH-ONC-001,EX,SYNTH-ONC-001-0056,5,FULVESTRANT,500,mg,INTRAMUSCULAR,ONCE,2021-05-01,2021-05-01
SYNTH-ONC-001,EX,SYNTH-ONC-001-0056,6,FULVESTRANT,500,mg,INTRAMUSCULAR,ONCE,2021-05-29,2021-05-29
SYNTH-ONC-001,EX,SYNTH-ONC-001-0056,7,FULVESTRANT,500,mg,INTRAMUSCULAR,ONCE,2021-06-26,2021-06-26
SYNTH-ONC-001,EX,SYNTH-ONC-001-0056,8,FULVESTRANT,500,mg,INTRAMUSCULAR,ONCE,2021-07-24,2021-07-24
SYNTH-ONC-001,EX,SYNTH-ONC-001-0056,9,FULVESTRANT,500,mg,INTRAMUSCULAR,ONCE,2021-08-21,2021-08-21
SYNTH-ONC-001,EX,SYNTH-ONC-001-0056,10,FULVESTRANT,500,mg,INTRAMUSCULAR,ONCE,2021-09-18,2021-09-18
SYNTH-ONC-001,EX,SYNTH-ONC-001-0056,11,FULVESTRANT,500,mg,INTRAMUSCULAR,ONCE,2021-10-16,2021-10-16
SYNTH-ONC-001,EX,SYNTH-ONC-001-0056,12,EVEROLIMUS,10,mg,ORAL,QD,2021-02-06,2021-10-27
SYNTH-ONC-001,EX,SYNTH-ONC-001-0057,1,FULVESTRANT,500,mg,INTRAMUSCULAR,ONCE,2021-06-09,2021-06-09
SYNTH-ONC-001,EX,SYNTH-ONC-001-0057,2,FULVESTRANT,500,mg,INTRAMUSCULAR,ONCE,2021-06-23,2021-06-23
SYNTH-ONC-001,EX,SYNTH-ONC-001-0057,3,FULVESTRANT,500,mg,INTRAMUSCULAR,ONCE,2021-07-07,2021-07-07
SYNTH-ONC-001,EX,SYNTH-ONC-001-0057,4,FULVESTRANT,500,mg,INTRAMUSCULAR,ONCE,2021-08-04,2021-08-04
SYNTH-ONC-001,EX,SYNTH-ONC-001-0057,5,PLACEBO,10,mg,ORAL,QD,2021-06-09,2021-08-09
SYNTH-ONC-001,EX,SYNTH-ONC-001-0058,1,FULVESTRANT,500,mg,INTRAMUSCULAR,ONCE,2021-01-09,2021-01-09
SYNTH-ONC-001,EX,SYNTH-ONC-001-0058,2,FULVESTRANT,500,mg,INTRAMUSCULAR,ONCE,2021-01-23,2021-01-23
SYNTH-ONC-001,EX,SYNTH-ONC-001-0058,3,FULVESTRANT,500,mg,INTRAMUSCULAR,ONCE,2021-02-06,2021-02-06
SYNTH-ONC-001,EX,SYNTH-ONC-001-0058,4,FULVESTRANT,500,mg,INTRAMUSCULAR,ONCE,2021-03-06,2021-03-06
SYNTH-ONC-001,EX,SYNTH-ONC-001-0058,5,FULVESTRANT,500,mg,INTRAMUSCULAR,ONCE,2021-04-03,2021-04-03
SYNTH-ONC-001,EX,SYNTH-ONC-001-0058,6,FULVESTRANT,500,mg,INTRAMUSCULAR,ONCE,2021-05-01,2021-05-01
SYNTH-ONC-001,EX,SYNTH-ONC-001-0058,7,FULVESTRANT,500,mg,INTRAMUSCULAR,ONCE,2021-05-29,2021-05-29
SYNTH-ONC-001,EX,SYNTH-ONC-001-0058,8,FULVESTRANT,500,mg,INTRAMUSCULAR,ONCE,2021-06-26,2021-06-26
SYNTH-ONC-001,EX,SYNTH-ONC-001-0058,9,FULVESTRANT,500,mg,INTRAMUSCULAR,ONCE,2021-07-24,2021-07-24
SYNTH-ONC-001,EX,SYNTH-ONC-001-0058,10,FULVESTRANT,500,mg,INTRAMUSCULAR,ONCE,2021-08-21,2021-08-21
SYNTH-ONC-001,EX,SYNTH-ONC-001-0058,11,FULVESTRANT,500,mg,INTRAMUSCULAR,ONCE,2021-09-18,2021-09-18
SYNTH-ONC-001,EX,SYNTH-ONC-001-0058,12,FULVESTRANT,500,mg,INTRAMUSCULAR,ONCE,2021-10-16,2021-10-16
SYNTH-ONC-001,EX,SYNTH-ONC-001-0058,13,FULVESTRANT,500,mg,INTRAMUSCULAR,ONCE,2021-11-13,2021-11-13
SYNTH-ONC-001,EX,SYNTH-ONC-001-0058,14,FULVESTRANT,500,mg,INTRAMUSCULAR,ONCE,2021-12-11,2021-12-11
SYNTH-ONC-001,EX,SYNTH-ONC-001-0058,15,FULVESTRANT,500,mg,INTRAMUSCULAR,ONCE,2022-01-08,2022-01-08
SYNTH-ONC-001,EX,SYNTH-ONC-001-0058,16,FULVESTRANT,500,mg,INTRAMUSCULAR,ONCE,2022-02-05,2022-02-05
SYNTH-ONC-001,EX,SYNTH-ONC-001-0058,17,FULVESTRANT,500,mg,INTRAMUSCULAR,ONCE,2022-03-05,2022-03-05
SYNTH-ONC-001,EX,SYNTH-ONC-001-0058,18,FULVESTRANT,500,mg,INTRAMUSCULAR,ONCE,2022-04-02,2022-04-02
SYNTH-ONC-001,EX,SYNTH-ONC-001-0058,19,FULVESTRANT,500,mg,INTRAMUSCULAR,ONCE,2022-04-30,2022-04-30
SYNTH-ONC-001,EX,SYNTH-ONC-001-0058,20,FULVESTRANT,500,mg,INTRAMUSCULAR,ONCE,2022-05-28,2022-05-28
SYNTH-ONC-001,EX,SYNTH-ONC-001-0058,21,EVEROLIMUS,10,mg,ORAL,QD,2021-01-09,2022-06-21
SYNTH-ONC-001,EX,SYNTH-ONC-001-0059,1,FULVESTRANT,500,mg,INTRAMUSCULAR,ONCE,2021-08-21,2021-08-21
SYNTH-ONC-001,EX,SYNTH-ONC-001-0059,2,FULVESTRANT,500,mg,INTRAMUSCULAR,ONCE,2021-09-04,2021-09-04
SYNTH-ONC-001,EX,SYNTH-ONC-001-0059,3,FULVESTRANT,500,mg,INTRAMUSCULAR,ONCE,2021-09-18,2021-09-18
SYNTH-ONC-001,EX,SYNTH-ONC-001-0059,4,FULVESTRANT,500,mg,INTRAMUSCULAR,ONCE,2021-10-16,2021-10-16
SYNTH-ONC-001,EX,SYNTH-ONC-001-0059,5,FULVESTRANT,500,mg,INTRAMUSCULAR,ONCE,2021-11-13,2021-11-13
SYNTH-ONC-001,EX,SYNTH-ONC-001-0059,6,PLACEBO,10,mg,ORAL,QD,2021-08-21,2021-12-04
SYNTH-ONC-001,EX,SYNTH-ONC-001-0060,1,FULVESTRANT,500,mg,INTRAMUSCULAR,ONCE,2021-04-09,2021-04-09
SYNTH-ONC-001,EX,SYNTH-ONC-001-0060,2,FULVESTRANT,500,mg,INTRAMUSCULAR,ONCE,2021-04-23,2021-04-23
SYNTH-ONC-001,EX,SYNTH-ONC-001-0060,3,FULVESTRANT,500,mg,INTRAMUSCULAR,ONCE,2021-05-07,2021-05-07
SYNTH-ONC-001,EX,SYNTH-ONC-001-0060,4,FULVESTRANT,500,mg,INTRAMUSCULAR,ONCE,2021-06-04,2021-06-04
SYNTH-ONC-001,EX,SYNTH-ONC-001-0060,5,FULVESTRANT,500,mg,INTRAMUSCULAR,ONCE,2021-07-02,2021-07-02
SYNTH-ONC-001,EX,SYNTH-ONC-001-0060,6,FULVESTRANT,500,mg,INTRAMUSCULAR,ONCE,2021-07-30,2021-07-30
SYNTH-ONC-001,EX,SYNTH-ONC-001-0060,7,FULVESTRANT,500,mg,INTRAMUSCULAR,ONCE,2021-08-27,2021-08-27
SYNTH-ONC-001,EX,SYNTH-ONC-001-0060,8,FULVESTRANT,500,mg,INTRAMUSCULAR,ONCE,2021-09-24,2021-09-24
SYNTH-ONC-001,EX,SYNTH-ONC-001-0060,9,FULVESTRANT,500,mg,INTRAMUSCULAR,ONCE,2021-10-22,2021-10-22
SYNTH-ONC-001,EX,SYNTH-ONC-001-0060,10,FULVESTRANT,500,mg,INTRAMUSCULAR,ONCE,2021-11-19,2021-11-19
SYNTH-ONC-001,EX,SYNTH-ONC-001-0060,11,FULVESTRANT,500,mg,INTRAMUSCULAR,ONCE,2021-12-17,2021-12-17
SYNTH-ONC-001,EX,SYNTH-ONC-001-0060,12,FULVESTRANT,500,mg,INTRAMUSCULAR,ONCE,2022-01-14,2022-01-14
SYNTH-ONC-001,EX,SYNTH-ONC-001-0060,13,FULVESTRANT,500,mg,INTRAMUSCULAR,ONCE,2022-02-11,2022-02-11
SYNTH-ONC-001,EX,SYNTH-ONC-001-0060,14,FULVESTRANT,500,mg,INTRAMUSCULAR,ONCE,2022-03-11,2022-03-11
SYNTH-ONC-001,EX,SYNTH-ONC-001-0060,15,FULVESTRANT,500,mg,INTRAMUSCULAR,ONCE,2022-04-08,2022-04-08
SYNTH-ONC-001,EX,SYNTH-ONC-001-0060,16,EVEROLIMUS,10,mg,ORAL,QD,2021-04-09,2022-04-26
SYNTH-ONC-001,EX,SYNTH-ONC-001-0061,1,FULVESTRANT,500,mg,INTRAMUSCULAR,ONCE,2022-10-21,2022-10-21
SYNTH-ONC-001,EX,SYNTH-ONC-001-0061,2,FULVESTRANT,500,mg,INTRAMUSCULAR,ONCE,2022-11-04,2022-11-04
SYNTH-ONC-001,EX,SYNTH-ONC-001-0061,3,FULVESTRANT,500,mg,INTRAMUSCULAR,ONCE,2022-11-18,2022-11-18
SYNTH-ONC-001,EX,SYNTH-ONC-001-0061,4,FULVESTRANT,500,mg,INTRAMUSCULAR,ONCE,2022-12-16,2022-12-16
SYNTH-ONC-001,EX,SYNTH-ONC-001-0061,5,FULVESTRANT,500,mg,INTRAMUSCULAR,ONCE,2023-01-13,2023-01-13
SYNTH-ONC-001,EX,SYNTH-ONC-001-0061,6,FULVESTRANT,500,mg,INTRAMUSCULAR,ONCE,2023-02-10,2023-02-10
SYNTH-ONC-001,EX,SYNTH-ONC-001-0061,7,FULVESTRANT,500,mg,INTRAMUSCULAR,ONCE,2023-03-10,2023-03-10
SYNTH-ONC-001,EX,SYNTH-ONC-001-0061,8,FULVESTRANT,500,mg,INTRAMUSCULAR,ONCE,2023-04-07,2023-04-07
SYNTH-ONC-001,EX,SYNTH-ONC-001-0061,9,FULVESTRANT,500,mg,INTRAMUSCULAR,ONCE,2023-05-05,2023-05-05
SYNTH-ONC-001,EX,SYNTH-ONC-001-0061,10,FULVESTRANT,500,mg,INTRAMUSCULAR,ONCE,2023-06-02,2023-06-02
SYNTH-ONC-001,EX,SYNTH-ONC-001-0061,11,FULVESTRANT,500,mg,INTRAMUSCULAR,ONCE,2023-06-30,2023-06-30
SYNTH-ONC-001,EX,SYNTH-ONC-001-0061,12,FULVESTRANT,500,mg,INTRAMUSCULAR,ONCE,2023-07-28,2023-07-28
SYNTH-ONC-001,EX,SYNTH-ONC-001-0061,13,FULVESTRANT,500,mg,INTRAMUSCULAR,ONCE,2023-08-25,2023-08-25
SYNTH-ONC-001,EX,SYNTH-ONC-001-0061,14,FULVESTRANT,500,mg,INTRAMUSCULAR,ONCE,2023-09-22,2023-09-22
SYNTH-ONC-001,EX,SYNTH-ONC-001-0061,15,FULVESTRANT,500,mg,INTRAMUSCULAR,ONCE,2023-10-20,2023-10-20
SYNTH-ONC-001,EX,SYNTH-ONC-001-0061,16,FULVESTRANT,500,mg,INTRAMUSCULAR,ONCE,2023-11-17,2023-11-17
SYNTH-ONC-001,EX,SYNTH-ONC-001-0061,17,FULVESTRANT,500,mg,INTRAMUSCULAR,ONCE,2023-12-15,2023-12-15
SYNTH-ONC-001,EX,SYNTH-ONC-001-0061,18,FULVESTRANT,500,mg,INTRAMUSCULAR,ONCE,2024-01-12,2024-01-12
SYNTH-ONC-001,EX,SYNTH-ONC-001-0061,19,FULVESTRANT,500,mg,INTRAMUSCULAR,ONCE,2024-02-09,2024-02-09
SYNTH-ONC-001,EX,SYNTH-ONC-001-0061,20,FULVESTRANT,500,mg,INTRAMUSCULAR,ONCE,2024-03-08,2024-03-08
SYNTH-ONC-001,EX,SYNTH-ONC-001-0061,21,FULVESTRANT,500,mg,INTRAMUSCULAR,ONCE,2024-04-05,2024-04-05
SYNTH-ONC-001,EX,SYNTH-ONC-001-0061,22,FULVESTRANT,500,mg,INTRAMUSCULAR,ONCE,2024-05-03,2024-05-03
SYNTH-ONC-001,EX,SYNTH-ONC-001-0061,23,FULVESTRANT,500,mg,INTRAMUSCULAR,ONCE,2024-05-31,2024-05-31
SYNTH-ONC-001,EX,SYNTH-ONC-001-0061,24,PLACEBO,10,mg,ORAL,QD,2022-10-21,2024-06-04
SYNTH-ONC-001,EX,SYNTH-ONC-001-0062,1,FULVESTRANT,500,mg,INTRAMUSCULAR,ONCE,2021-07-27,2021-07-27
SYNTH-ONC-001,EX,SYNTH-ONC-001-0062,2,FULVESTRANT,500,mg,INTRAMUSCULAR,ONCE,2021-08-10,2021-08-10
SYNTH-ONC-001,EX,SYNTH-ONC-001-0062,3,FULVESTRANT,500,mg,INTRAMUSCULAR,ONCE,2021-08-24,2021-08-24
SYNTH-ONC-001,EX,SYNTH-ONC-001-0062,4,FULVESTRANT,500,mg,INTRAMUSCULAR,ONCE,2021-09-21,2021-09-21
SYNTH-ONC-001,EX,SYNTH-ONC-001-0062,5,FULVESTRANT,500,mg,INTRAMUSCULAR,ONCE,2021-10-19,2021-10-19
SYNTH-ONC-001,EX,SYNTH-ONC-001-0062,6,FULVESTRANT,500,mg,INTRAMUSCULAR,ONCE,2021-11-16,2021-11-16
SYNTH-ONC-001,EX,SYNTH-ONC-001-0062,7,FULVESTRANT,500,mg,INTRAMUSCULAR,ONCE,2021-12-14,2021-12-14
SYNTH-ONC-001,EX,SYNTH-ONC-001-0062,8,FULVESTRANT,500,mg,INTRAMUSCULAR,ONCE,2022-01-11,2022-01-11
SYNTH-ONC-001,EX,SYNTH-ONC-001-0062,9,FULVESTRANT,500,mg,INTRAMUSCULAR,ONCE,2022-02-08,2022-02-08
SYNTH-ONC-001,EX,SYNTH-ONC-001-0062,10,FULVESTRANT,500,mg,INTRAMUSCULAR,ONCE,2022-03-08,2022-03-08
SYNTH-ONC-001,EX,SYNTH-ONC-001-0062,11,FULVESTRANT,500,mg,INTRAMUSCULAR,ONCE,2022-04-05,2022-04-05
SYNTH-ONC-001,EX,SYNTH-ONC-001-0062,12,FULVESTRANT,500,mg,INTRAMUSCULAR,ONCE,2022-05-03,2022-05-03
SYNTH-ONC-001,EX,SYNTH-ONC-001-0062,13,FULVESTRANT,500,mg,INTRAMUSCULAR,ONCE,2022-05-31,2022-05-31
SYNTH-ONC-001,EX,SYNTH-ONC-001-0062,14,FULVESTRANT,500,mg,INTRAMUSCULAR,ONCE,2022-06-28,2022-06-28
SYNTH-ONC-001,EX,SYNTH-ONC-001-0062,15,EVEROLIMUS,10,mg,ORAL,QD,2021-07-27,2022-07-11
SYNTH-ONC-001,EX,SYNTH-ONC-001-0063,1,FULVESTRANT,500,mg,INTRAMUSCULAR,ONCE,2021-05-11,2021-05-11
SYNTH-ONC-001,EX,SYNTH-ONC-001-0063,2,FULVESTRANT,500,mg,INTRAMUSCULAR,ONCE,2021-05-25,2021-05-25
SYNTH-ONC-001,EX,SYNTH-ONC-001-0063,3,FULVESTRANT,500,mg,INTRAMUSCULAR,ONCE,2021-06-08,2021-06-08
SYNTH-ONC-001,EX,SYNTH-ONC-001-0063,4,FULVESTRANT,500,mg,INTRAMUSCULAR,ONCE,2021-07-06,2021-07-06
SYNTH-ONC-001,EX,SYNTH-ONC-001-0063,5,FULVESTRANT,500,mg,INTRAMUSCULAR,ONCE,2021-08-03,2021-08-03
SYNTH-ONC-001,EX,SYNTH-ONC-001-0063,6,FULVESTRANT,500,mg,INTRAMUSCULAR,ONCE,2021-08-31,2021-08-31
SYNTH-ONC-001,EX,SYNTH-ONC-001-0063,7,FULVESTRANT,500,mg,INTRAMUSCULAR,ONCE,2021-09-28,2021-09-28
SYNTH-ONC-001,EX,SYNTH-ONC-001-0063,8,FULVESTRANT,500,mg,INTRAMUSCULAR,ONCE,2021-10-26,2021-10-26
SYNTH-ONC-001,EX,SYNTH-ONC-001-0063,9,FULVESTRANT,500,mg,INTRAMUSCULAR,ONCE,2021-11-23,2021-11-23
SYNTH-ONC-001,EX,SYNTH-ONC-001-0063,10,FULVESTRANT,500,mg,INTRAMUSCULAR,ONCE,2021-12-21,2021-12-21
SYNTH-ONC-001,EX,SYNTH-ONC-001-0063,11,FULVESTRANT,500,mg,INTRAMUSCULAR,ONCE,2022-01-18,2022-01-18
SYNTH-ONC-001,EX,SYNTH-ONC-001-0063,12,FULVESTRANT,500,mg,INTRAMUSCULAR,ONCE,2022-02-15,2022-02-15
SYNTH-ONC-001,EX,SYNTH-ONC-001-0063,13,FULVESTRANT,500,mg,INTRAMUSCULAR,ONCE,2022-03-15,2022-03-15
SYNTH-ONC-001,EX,SYNTH-ONC-001-0063,14,FULVESTRANT,500,mg,INTRAMUSCULAR,ONCE,2022-04-12,2022-04-12
SYNTH-ONC-001,EX,SYNTH-ONC-001-0063,15,FULVESTRANT,500,mg,INTRAMUSCULAR,ONCE,2022-05-10,2022-05-10
SYNTH-ONC-001,EX,SYNTH-ONC-001-0063,16,FULVESTRANT,500,mg,INTRAMUSCULAR,ONCE,2022-06-07,2022-06-07
SYNTH-ONC-001,EX,SYNTH-ONC-001-0063,17,FULVESTRANT,500,mg,INTRAMUSCULAR,ONCE,2022-07-05,2022-07-05
SYNTH-ONC-001,EX,SYNTH-ONC-001-0063,18,FULVESTRANT,500,mg,INTRAMUSCULAR,ONCE,2022-08-02,2022-08-02
SYNTH-ONC-001,EX,SYNTH-ONC-001-0063,19,FULVESTRANT,500,mg,INTRAMUSCULAR,ONCE,2022-08-30,2022-08-30
SYNTH-ONC-001,EX,SYNTH-ONC-001-0063,20,FULVESTRANT,500,mg,INTRAMUSCULAR,ONCE,2022-09-27,2022-09-27
SYNTH-ONC-001,EX,SYNTH-ONC-001-0063,21,FULVESTRANT,500,mg,INTRAMUSCULAR,ONCE,2022-10-25,2022-10-25
SYNTH-ONC-001,EX,SYNTH-ONC-001-0063,22,EVEROLIMUS,10,mg,ORAL,QD,2021-05-11,2022-11-20
SYNTH-ONC-001,EX,SYNTH-ONC-001-0064,1,FULVESTRANT,500,mg,INTRAMUSCULAR,ONCE,2022-02-08,2022-02-08
SYNTH-ONC-001,EX,SYNTH-ONC-001-0064,2,FULVESTRANT,500,mg,INTRAMUSCULAR,ONCE,2022-02-22,2022-02-22
SYNTH-ONC-001,EX,SYNTH-ONC-001-0064,3,FULVESTRANT,500,mg,INTRAMUSCULAR,ONCE,2022-03-08,2022-03-08
SYNTH-ONC-001,EX,SYNTH-ONC-001-0064,4,FULVESTRANT,500,mg,INTRAMUSCULAR,ONCE,2022-04-05,2022-04-05
SYNTH-ONC-001,EX,SYNTH-ONC-001-0064,5,FULVESTRANT,500,mg,INTRAMUSCULAR,ONCE,2022-05-03,2022-05-03
SYNTH-ONC-001,EX,SYNTH-ONC-001-0064,6,FULVESTRANT,500,mg,INTRAMUSCULAR,ONCE,2022-05-31,2022-05-31
SYNTH-ONC-001,EX,SYNTH-ONC-001-0064,7,FULVESTRANT,500,mg,INTRAMUSCULAR,ONCE,2022-06-28,2022-06-28
SYNTH-ONC-001,EX,SYNTH-ONC-001-0064,8,FULVESTRANT,500,mg,INTRAMUSCULAR,ONCE,2022-07-26,2022-07-26
SYNTH-ONC-001,EX,SYNTH-ONC-001-0064,9,EVEROLIMUS,10,mg,ORAL,QD,2022-02-08,2022-08-14
SYNTH-ONC-001,EX,SYNTH-ONC-001-0065,1,FULVESTRANT,500,mg,INTRAMUSCULAR,ONCE,2021-06-01,2021-06-01
SYNTH-ONC-001,EX,SYNTH-ONC-001-0065,2,FULVESTRANT,500,mg,INTRAMUSCULAR,ONCE,2021-06-15,2021-06-15
SYNTH-ONC-001,EX,SYNTH-ONC-001-0065,3,FULVESTRANT,500,mg,INTRAMUSCULAR,ONCE,2021-06-29,2021-06-29
SYNTH-ONC-001,EX,SYNTH-ONC-001-0065,4,FULVESTRANT,500,mg,INTRAMUSCULAR,ONCE,2021-07-27,2021-07-27
SYNTH-ONC-001,EX,SYNTH-ONC-001-0065,5,FULVESTRANT,500,mg,INTRAMUSCULAR,ONCE,2021-08-24,2021-08-24
SYNTH-ONC-001,EX,SYNTH-ONC-001-0065,6,FULVESTRANT,500,mg,INTRAMUSCULAR,ONCE,2021-09-21,2021-09-21
SYNTH-ONC-001,EX,SYNTH-ONC-001-0065,7,FULVESTRANT,500,mg,INTRAMUSCULAR,ONCE,2021-10-19,2021-10-19
SYNTH-ONC-001,EX,SYNTH-ONC-001-0065,8,FULVESTRANT,500,mg,INTRAMUSCULAR,ONCE,2021-11-16,2021-11-16
SYNTH-ONC-001,EX,SYNTH-ONC-001-0065,9,FULVESTRANT,500,mg,INTRAMUSCULAR,ONCE,2021-12-14,2021-12-14
SYNTH-ONC-001,EX,SYNTH-ONC-001-0065,10,FULVESTRANT,500,mg,INTRAMUSCULAR,ONCE,2022-01-11,2022-01-11
SYNTH-ONC-001,EX,SYNTH-ONC-001-0065,11,FULVESTRANT,500,mg,INTRAMUSCULAR,ONCE,2022-02-08,2022-02-08
SYNTH-ONC-001,EX,SYNTH-ONC-001-0065,12,FULVESTRANT,500,mg,INTRAMUSCULAR,ONCE,2022-03-08,2022-03-08
SYNTH-ONC-001,EX,SYNTH-ONC-001-0065,13,FULVESTRANT,500,mg,INTRAMUSCULAR,ONCE,2022-04-05,2022-04-05
SYNTH-ONC-001,EX,SYNTH-ONC-001-0065,14,FULVESTRANT,500,mg,INTRAMUSCULAR,ONCE,2022-05-03,2022-05-03
SYNTH-ONC-001,EX,SYNTH-ONC-001-0065,15,FULVESTRANT,500,mg,INTRAMUSCULAR,ONCE,2022-05-31,2022-05-31
SYNTH-ONC-001,EX,SYNTH-ONC-001-0065,16,FULVESTRANT,500,mg,INTRAMUSCULAR,ONCE,2022-06-28,2022-06-28
SYNTH-ONC-001,EX,SYNTH-ONC-001-0065,17,FULVESTRANT,500,mg,INTRAMUSCULAR,ONCE,2022-07-26,2022-07-26
SYNTH-ONC-001,EX,SYNTH-ONC-001-0065,18,FULVESTRANT,500,mg,INTRAMUSCULAR,ONCE,2022-08-23,2022-08-23
SYNTH-ONC-001,EX,SYNTH-ONC-001-0065,19,EVEROLIMUS,10,mg,ORAL,QD,2021-06-01,2022-09-14
SYNTH-ONC-001,EX,SYNTH-ONC-001-0066,1,FULVESTRANT,500,mg,INTRAMUSCULAR,ONCE,2021-02-23,2021-02-23
SYNTH-ONC-001,EX,SYNTH-ONC-001-0066,2,FULVESTRANT,500,mg,INTRAMUSCULAR,ONCE,2021-03-09,2021-03-09
SYNTH-ONC-001,EX,SYNTH-ONC-001-0066,3,FULVESTRANT,500,mg,INTRAMUSCULAR,ONCE,2021-03-23,2021-03-23
SYNTH-ONC-001,EX,SYNTH-ONC-001-0066,4,FULVESTRANT,500,mg,INTRAMUSCULAR,ONCE,2021-04-20,2021-04-20
SYNTH-ONC-001,EX,SYNTH-ONC-001-0066,5,FULVESTRANT,500,mg,INTRAMUSCULAR,ONCE,2021-05-18,2021-05-18
SYNTH-ONC-001,EX,SYNTH-ONC-001-0066,6,FULVESTRANT,500,mg,INTRAMUSCULAR,ONCE,2021-06-15,2021-06-15
SYNTH-ONC-001,EX,SYNTH-ONC-001-0066,7,FULVESTRANT,500,mg,INTRAMUSCULAR,ONCE,2021-07-13,2021-07-13
SYNTH-ONC-001,EX,SYNTH-ONC-001-0066,8,FULVESTRANT,500,mg,INTRAMUSCULAR,ONCE,2021-08-10,2021-08-10
SYNTH-ONC-001,EX,SYNTH-ONC-001-0066,9,FULVESTRANT,500,mg,INTRAMUSCULAR,ONCE,2021-09-07,2021-09-07
SYNTH-ONC-001,EX,SYNTH-ONC-001-0066,10,FULVESTRANT,500,mg,INTRAMUSCULAR,ONCE,2021-10-05,2021-10-05
SYNTH-ONC-001,EX,SYNTH-ONC-001-0066,11,FULVESTRANT,500,mg,INTRAMUSCULAR,ONCE,2021-11-02,2021-11-02
SYNTH-ONC-001,EX,SYNTH-ONC-001-0066,12,FULVESTRANT,500,mg,INTRAMUSCULAR,ONCE,2021-11-30,2021-11-30
SYNTH-ONC-001,EX,SYNTH-ONC-001-0066,13,FULVESTRANT,500,mg,INTRAMUSCULAR,ONCE,2021-12-28,2021-12-28
SYNTH-ONC-001,EX,SYNTH-ONC-001-0066,14,FULVESTRANT,500,mg,INTRAMUSCULAR,ONCE,2022-01-25,2022-01-25
SYNTH-ONC-001,EX,SYNTH-ONC-001-0066,15,PLACEBO,10,mg,ORAL,QD,2021-02-23,2022-02-04
SYNTH-ONC-001,EX,SYNTH-ONC-001-0067,1,FULVESTRANT,500,mg,INTRAMUSCULAR,ONCE,2021-04-30,2021-04-30
SYNTH-ONC-001,EX,SYNTH-ONC-001-0067,2,FULVESTRANT,500,mg,INTRAMUSCULAR,ONCE,2021-05-14,2021-05-14
SYNTH-ONC-001,EX,SYNTH-ONC-001-0067,3,FULVESTRANT,500,mg,INTRAMUSCULAR,ONCE,2021-05-28,2021-05-28
SYNTH-ONC-001,EX,SYNTH-ONC-001-0067,4,FULVESTRANT,500,mg,INTRAMUSCULAR,ONCE,2021-06-25,2021-06-25
SYNTH-ONC-001,EX,SYNTH-ONC-001-0067,5,FULVESTRANT,500,mg,INTRAMUSCULAR,ONCE,2021-07-23,2021-07-23
SYNTH-ONC-001,EX,SYNTH-ONC-001-0067,6,FULVESTRANT,500,mg,INTRAMUSCULAR,ONCE,2021-08-20,2021-08-20
SYNTH-ONC-001,EX,SYNTH-ONC-001-0067,7,FULVESTRANT,500,mg,INTRAMUSCULAR,ONCE,2021-09-17,2021-09-17
SYNTH-ONC-001,EX,SYNTH-ONC-001-0067,8,FULVESTRANT,500,mg,INTRAMUSCULAR,ONCE,2021-10-15,2021-10-15
SYNTH-ONC-001,EX,SYNTH-ONC-001-0067,9,FULVESTRANT,500,mg,INTRAMUSCULAR,ONCE,2021-11-12,2021-11-12
SYNTH-ONC-001,EX,SYNTH-ONC-001-0067,10,FULVESTRANT,500,mg,INTRAMUSCULAR,ONCE,2021-12-10,2021-12-10
SYNTH-ONC-001,EX,SYNTH-ONC-001-0067,11,FULVESTRANT,500,mg,INTRAMUSCULAR,ONCE,2022-01-07,2022-01-07
SYNTH-ONC-001,EX,SYNTH-ONC-001-0067,12,FULVESTRANT,500,mg,INTRAMUSCULAR,ONCE,2022-02-04,2022-02-04
SYNTH-ONC-001,EX,SYNTH-ONC-001-0067,13,FULVESTRANT,500,mg,INTRAMUSCULAR,ONCE,2022-03-04,2022-03-04
SYNTH-ONC-001,EX,SYNTH-ONC-001-0067,14,FULVESTRANT,500,mg,INTRAMUSCULAR,ONCE,2022-04-01,2022-04-01
SYNTH-ONC-001,EX,SYNTH-ONC-001-0067,15,FULVESTRANT,500,mg,INTRAMUSCULAR,ONCE,2022-04-29,2022-04-29
SYNTH-ONC-001,EX,SYNTH-ONC-001-0067,16,FULVESTRANT,500,mg,INTRAMUSCULAR,ONCE,2022-05-27,2022-05-27
SYNTH-ONC-001,EX,SYNTH-ONC-001-0067,17,FULVESTRANT,500,mg,INTRAMUSCULAR,ONCE,2022-06-24,2022-06-24
SYNTH-ONC-001,EX,SYNTH-ONC-001-0067,18,FULVESTRANT,500,mg,INTRAMUSCULAR,ONCE,2022-07-22,2022-07-22
SYNTH-ONC-001,EX,SYNTH-ONC-001-0067,19,EVEROLIMUS,10,mg,ORAL,QD,2021-04-30,2022-07-23
SYNTH-ONC-001,EX,SYNTH-ONC-001-0068,1,FULVESTRANT,500,mg,INTRAMUSCULAR,ONCE,2022-11-04,2022-11-04
SYNTH-ONC-001,EX,SYNTH-ONC-001-0068,2,FULVESTRANT,500,mg,INTRAMUSCULAR,ONCE,2022-11-18,2022-11-18
SYNTH-ONC-001,EX,SYNTH-ONC-001-0068,3,FULVESTRANT,500,mg,INTRAMUSCULAR,ONCE,2022-12-02,2022-12-02
SYNTH-ONC-001,EX,SYNTH-ONC-001-0068,4,FULVESTRANT,500,mg,INTRAMUSCULAR,ONCE,2022-12-30,2022-12-30
SYNTH-ONC-001,EX,SYNTH-ONC-001-0068,5,FULVESTRANT,500,mg,INTRAMUSCULAR,ONCE,2023-01-27,2023-01-27
SYNTH-ONC-001,EX,SYNTH-ONC-001-0068,6,PLACEBO,10,mg,ORAL,QD,2022-11-04,2023-02-05
SYNTH-ONC-001,EX,SYNTH-ONC-001-0069,1,FULVESTRANT,500,mg,INTRAMUSCULAR,ONCE,2022-09-20,2022-09-20
SYNTH-ONC-001,EX,SYNTH-ONC-001-0069,2,FULVESTRANT,500,mg,INTRAMUSCULAR,ONCE,2022-10-04,2022-10-04
SYNTH-ONC-001,EX,SYNTH-ONC-001-0069,3,FULVESTRANT,500,mg,INTRAMUSCULAR,ONCE,2022-10-18,2022-10-18
SYNTH-ONC-001,EX,SYNTH-ONC-001-0069,4,FULVESTRANT,500,mg,INTRAMUSCULAR,ONCE,2022-11-15,2022-11-15
SYNTH-ONC-001,EX,SYNTH-ONC-001-0069,5,FULVESTRANT,500,mg,INTRAMUSCULAR,ONCE,2022-12-13,2022-12-13
SYNTH-ONC-001,EX,SYNTH-ONC-001-0069,6,FULVESTRANT,500,mg,INTRAMUSCULAR,ONCE,2023-01-10,2023-01-10
SYNTH-ONC-001,EX,SYNTH-ONC-001-0069,7,EVEROLIMUS,10,mg,ORAL,QD,2022-09-20,2023-02-06
SYNTH-ONC-001,EX,SYNTH-ONC-001-0070,1,FULVESTRANT,500,mg,INTRAMUSCULAR,ONCE,2022-08-10,2022-08-10
SYNTH-ONC-001,EX,SYNTH-ONC-001-0070,2,FULVESTRANT,500,mg,INTRAMUSCULAR,ONCE,2022-08-24,2022-08-24
SYNTH-ONC-001,EX,SYNTH-ONC-001-0070,3,FULVESTRANT,500,mg,INTRAMUSCULAR,ONCE,2022-09-07,2022-09-07
SYNTH-ONC-001,EX,SYNTH-ONC-001-0070,4,FULVESTRANT,500,mg,INTRAMUSCULAR,ONCE,2022-10-05,2022-10-05
SYNTH-ONC-001,EX,SYNTH-ONC-001-0070,5,FULVESTRANT,500,mg,INTRAMUSCULAR,ONCE,2022-11-02,2022-11-02
SYNTH-ONC-001,EX,SYNTH-ONC-001-0070,6,FULVESTRANT,500,mg,INTRAMUSCULAR,ONCE,2022-11-30,2022-11-30
SYNTH-ONC-001,EX,SYNTH-ONC-001-0070,7,PLACEBO,10,mg,ORAL,QD,2022-08-10,2022-12-19
SYNTH-ONC-001,EX,SYNTH-ONC-001-0071,1,FULVESTRANT,500,mg,INTRAMUSCULAR,ONCE,2022-09-17,2022-09-17
SYNTH-ONC-001,EX,SYNTH-ONC-001-0071,2,FULVESTRANT,500,mg,INTRAMUSCULAR,ONCE,2022-10-01,2022-10-01
SYNTH-ONC-001,EX,SYNTH-ONC-001-0071,3,FULVESTRANT,500,mg,INTRAMUSCULAR,ONCE,2022-10-15,2022-10-15
SYNTH-ONC-001,EX,SYNTH-ONC-001-0071,4,FULVESTRANT,500,mg,INTRAMUSCULAR,ONCE,2022-11-12,2022-11-12
SYNTH-ONC-001,EX,SYNTH-ONC-001-0071,5,FULVESTRANT,500,mg,INTRAMUSCULAR,ONCE,2022-12-10,2022-12-10
SYNTH-ONC-001,EX,SYNTH-ONC-001-0071,6,FULVESTRANT,500,mg,INTRAMUSCULAR,ONCE,2023-01-07,2023-01-07
SYNTH-ONC-001,EX,SYNTH-ONC-001-0071,7,FULVESTRANT,500,mg,INTRAMUSCULAR,ONCE,2023-02-04,2023-02-04
SYNTH-ONC-001,EX,SYNTH-ONC-001-0071,8,FULVESTRANT,500,mg,INTRAMUSCULAR,ONCE,2023-03-04,2023-03-04
SYNTH-ONC-001,EX,SYNTH-ONC-001-0071,9,FULVESTRANT,500,mg,INTRAMUSCULAR,ONCE,2023-04-01,2023-04-01
SYNTH-ONC-001,EX,SYNTH-ONC-001-0071,10,FULVESTRANT,500,mg,INTRAMUSCULAR,ONCE,2023-04-29,2023-04-29
SYNTH-ONC-001,EX,SYNTH-ONC-001-0071,11,FULVESTRANT,500,mg,INTRAMUSCULAR,ONCE,2023-05-27,2023-05-27
SYNTH-ONC-001,EX,SYNTH-ONC-001-0071,12,FULVESTRANT,500,mg,INTRAMUSCULAR,ONCE,2023-06-24,2023-06-24
SYNTH-ONC-001,EX,SYNTH-ONC-001-0071,13,FULVESTRANT,500,mg,INTRAMUSCULAR,ONCE,2023-07-22,2023-07-22
SYNTH-ONC-001,EX,SYNTH-ONC-001-0071,14,FULVESTRANT,500,mg,INTRAMUSCULAR,ONCE,2023-08-19,2023-08-19
SYNTH-ONC-001,EX,SYNTH-ONC-001-0071,15,FULVESTRANT,500,mg,INTRAMUSCULAR,ONCE,2023-09-16,2023-09-16
SYNTH-ONC-001,EX,SYNTH-ONC-001-0071,16,FULVESTRANT,500,mg,INTRAMUSCULAR,ONCE,2023-10-14,2023-10-14
SYNTH-ONC-001,EX,SYNTH-ONC-001-0071,17,FULVESTRANT,500,mg,INTRAMUSCULAR,ONCE,2023-11-11,2023-11-11
SYNTH-ONC-001,EX,SYNTH-ONC-001-0071,18,EVEROLIMUS,10,mg,ORAL,QD,2022-09-17,2023-11-22
SYNTH-ONC-001,EX,SYNTH-ONC-001-0072,1,FULVESTRANT,500,mg,INTRAMUSCULAR,ONCE,2022-02-24,2022-02-24
SYNTH-ONC-001,EX,SYNTH-ONC-001-0072,2,FULVESTRANT,500,mg,INTRAMUSCULAR,ONCE,2022-03-10,2022-03-10
SYNTH-ONC-001,EX,SYNTH-ONC-001-0072,3,FULVESTRANT,500,mg,INTRAMUSCULAR,ONCE,2022-03-24,2022-03-24
SYNTH-ONC-001,EX,SYNTH-ONC-001-0072,4,FULVESTRANT,500,mg,INTRAMUSCULAR,ONCE,2022-04-21,2022-04-21
SYNTH-ONC-001,EX,SYNTH-ONC-001-0072,5,FULVESTRANT,500,mg,INTRAMUSCULAR,ONCE,2022-05-19,2022-05-19
SYNTH-ONC-001,EX,SYNTH-ONC-001-0072,6,FULVESTRANT,500,mg,INTRAMUSCULAR,ONCE,2022-06-16,2022-06-16
SYNTH-ONC-001,EX,SYNTH-ONC-001-0072,7,FULVESTRANT,500,mg,INTRAMUSCULAR,ONCE,2022-07-14,2022-07-14
SYNTH-ONC-001,EX,SYNTH-ONC-001-0072,8,FULVESTRANT,500,mg,INTRAMUSCULAR,ONCE,2022-08-11,2022-08-11
SYNTH-ONC-001,EX,SYNTH-ONC-001-0072,9,FULVESTRANT,500,mg,INTRAMUSCULAR,ONCE,2022-09-08,2022-09-08
SYNTH-ONC-001,EX,SYNTH-ONC-001-0072,10,FULVESTRANT,500,mg,INTRAMUSCULAR,ONCE,2022-10-06,2022-10-06
SYNTH-ONC-001,EX,SYNTH-ONC-001-0072,11,FULVESTRANT,500,mg,INTRAMUSCULAR,ONCE,2022-11-03,2022-11-03
SYNTH-ONC-001,EX,SYNTH-ONC-001-0072,12,FULVESTRANT,500,mg,INTRAMUSCULAR,ONCE,2022-12-01,2022-12-01
SYNTH-ONC-001,EX,SYNTH-ONC-001-0072,13,FULVESTRANT,500,mg,INTRAMUSCULAR,ONCE,2022-12-29,2022-12-29
SYNTH-ONC-001,EX,SYNTH-ONC-001-0072,14,FULVESTRANT,500,mg,INTRAMUSCULAR,ONCE,2023-01-26,2023-01-26
SYNTH-ONC-001,EX,SYNTH-ONC-001-0072,15,FULVESTRANT,500,mg,INTRAMUSCULAR,ONCE,2023-02-23,2023-02-23
SYNTH-ONC-001,EX,SYNTH-ONC-001-0072,16,FULVESTRANT,500,mg,INTRAMUSCULAR,ONCE,2023-03-23,2023-03-23
SYNTH-ONC-001,EX,SYNTH-ONC-001-0072,17,FULVESTRANT,500,mg,INTRAMUSCULAR,ONCE,2023-04-20,2023-04-20
SYNTH-ONC-001,EX,SYNTH-ONC-001-0072,18,FULVESTRANT,500,mg,INTRAMUSCULAR,ONCE,2023-05-18,2023-05-18
SYNTH-ONC-001,EX,SYNTH-ONC-001-0072,19,FULVESTRANT,500,mg,INTRAMUSCULAR,ONCE,2023-06-15,2023-06-15
SYNTH-ONC-001,EX,SYNTH-ONC-001-0072,20,FULVESTRANT,500,mg,INTRAMUSCULAR,ONCE,2023-07-13,2023-07-13
SYNTH-ONC-001,EX,SYNTH-ONC-001-0072,21,PLACEBO,10,mg,ORAL,QD,2022-02-24,2023-07-24
SYNTH-ONC-001,EX,SYNTH-ONC-001-0073,1,FULVESTRANT,500,mg,INTRAMUSCULAR,ONCE,2022-02-26,2022-02-26
SYNTH-ONC-001,EX,SYNTH-ONC-001-0073,2,FULVESTRANT,500,mg,INTRAMUSCULAR,ONCE,2022-03-12,2022-03-12
SYNTH-ONC-001,EX,SYNTH-ONC-001-0073,3,FULVESTRANT,500,mg,INTRAMUSCULAR,ONCE,2022-03-26,2022-03-26
SYNTH-ONC-001,EX,SYNTH-ONC-001-0073,4,FULVESTRANT,500,mg,INTRAMUSCULAR,ONCE,2022-04-23,2022-04-23
SYNTH-ONC-001,EX,SYNTH-ONC-001-0073,5,FULVESTRANT,500,mg,INTRAMUSCULAR,ONCE,2022-05-21,2022-05-21
SYNTH-ONC-001,EX,SYNTH-ONC-001-0073,6,FULVESTRANT,500,mg,INTRAMUSCULAR,ONCE,2022-06-18,2022-06-18
SYNTH-ONC-001,EX,SYNTH-ONC-001-0073,7,FULVESTRANT,500,mg,INTRAMUSCULAR,ONCE,2022-07-16,2022-07-16
SYNTH-ONC-001,EX,SYNTH-ONC-001-0073,8,FULVESTRANT,500,mg,INTRAMUSCULAR,ONCE,2022-08-13,2022-08-13
SYNTH-ONC-001,EX,SYNTH-ONC-001-0073,9,FULVESTRANT,500,mg,INTRAMUSCULAR,ONCE,2022-09-10,2022-09-10
SYNTH-ONC-001,EX,SYNTH-ONC-001-0073,10,FULVESTRANT,500,mg,INTRAMUSCULAR,ONCE,2022-10-08,2022-10-08
SYNTH-ONC-001,EX,SYNTH-ONC-001-0073,11,FULVESTRANT,500,mg,INTRAMUSCULAR,ONCE,2022-11-05,2022-11-05
SYNTH-ONC-001,EX,SYNTH-ONC-001-0073,12,FULVESTRANT,500,mg,INTRAMUSCULAR,ONCE,2022-12-03,2022-12-03
SYNTH-ONC-001,EX,SYNTH-ONC-001-0073,13,FULVESTRANT,500,mg,INTRAMUSCULAR,ONCE,2022-12-31,2022-12-31
SYNTH-ONC-001,EX,SYNTH-ONC-001-0073,14,FULVESTRANT,500,mg,INTRAMUSCULAR,ONCE,2023-01-28,2023-01-28
SYNTH-ONC-001,EX,SYNTH-ONC-001-0073,15,FULVESTRANT,500,mg,INTRAMUSCULAR,ONCE,2023-02-25,2023-02-25
SYNTH-ONC-001,EX,SYNTH-ONC-001-0073,16,FULVESTRANT,500,mg,INTRAMUSCULAR,ONCE,2023-03-25,2023-03-25
SYNTH-ONC-001,EX,SYNTH-ONC-001-0073,17,FULVESTRANT,500,mg,INTRAMUSCULAR,ONCE,2023-04-22,2023-04-22
SYNTH-ONC-001,EX,SYNTH-ONC-001-0073,18,FULVESTRANT,500,mg,INTRAMUSCULAR,ONCE,2023-05-20,2023-05-20
SYNTH-ONC-001,EX,SYNTH-ONC-001-0073,19,PLACEBO,10,mg,ORAL,QD,2022-02-26,2023-06-05
SYNTH-ONC-001,EX,SYNTH-ONC-001-0074,1,FULVESTRANT,500,mg,INTRAMUSCULAR,ONCE,2021-04-14,2021-04-14
SYNTH-ONC-001,EX,SYNTH-ONC-001-0074,2,FULVESTRANT,500,mg,INTRAMUSCULAR,ONCE,2021-04-28,2021-04-28
SYNTH-ONC-001,EX,SYNTH-ONC-001-0074,3,FULVESTRANT,500,mg,INTRAMUSCULAR,ONCE,2021-05-12,2021-05-12
SYNTH-ONC-001,EX,SYNTH-ONC-001-0074,4,FULVESTRANT,500,mg,INTRAMUSCULAR,ONCE,2021-06-09,2021-06-09
SYNTH-ONC-001,EX,SYNTH-ONC-001-0074,5,EVEROLIMUS,10,mg,ORAL,QD,2021-04-14,2021-06-29
SYNTH-ONC-001,EX,SYNTH-ONC-001-0075,1,FULVESTRANT,500,mg,INTRAMUSCULAR,ONCE,2021-09-11,2021-09-11
SYNTH-ONC-001,EX,SYNTH-ONC-001-0075,2,FULVESTRANT,500,mg,INTRAMUSCULAR,ONCE,2021-09-25,2021-09-25
SYNTH-ONC-001,EX,SYNTH-ONC-001-0075,3,FULVESTRANT,500,mg,INTRAMUSCULAR,ONCE,2021-10-09,2021-10-09
SYNTH-ONC-001,EX,SYNTH-ONC-001-0075,4,FULVESTRANT,500,mg,INTRAMUSCULAR,ONCE,2021-11-06,2021-11-06
SYNTH-ONC-001,EX,SYNTH-ONC-001-0075,5,FULVESTRANT,500,mg,INTRAMUSCULAR,ONCE,2021-12-04,2021-12-04
SYNTH-ONC-001,EX,SYNTH-ONC-001-0075,6,FULVESTRANT,500,mg,INTRAMUSCULAR,ONCE,2022-01-01,2022-01-01
SYNTH-ONC-001,EX,SYNTH-ONC-001-0075,7,FULVESTRANT,500,mg,INTRAMUSCULAR,ONCE,2022-01-29,2022-01-29
SYNTH-ONC-001,EX,SYNTH-ONC-001-0075,8,FULVESTRANT,500,mg,INTRAMUSCULAR,ONCE,2022-02-26,2022-02-26
SYNTH-ONC-001,EX,SYNTH-ONC-001-0075,9,FULVESTRANT,500,mg,INTRAMUSCULAR,ONCE,2022-03-26,2022-03-26
SYNTH-ONC-001,EX,SYNTH-ONC-001-0075,10,FULVESTRANT,500,mg,INTRAMUSCULAR,ONCE,2022-04-23,2022-04-23
SYNTH-ONC-001,EX,SYNTH-ONC-001-0075,11,FULVESTRANT,500,mg,INTRAMUSCULAR,ONCE,2022-05-21,2022-05-21
SYNTH-ONC-001,EX,SYNTH-ONC-001-0075,12,FULVESTRANT,500,mg,INTRAMUSCULAR,ONCE,2022-06-18,2022-06-18
SYNTH-ONC-001,EX,SYNTH-ONC-001-0075,13,FULVESTRANT,500,mg,INTRAMUSCULAR,ONCE,2022-07-16,2022-07-16
SYNTH-ONC-001,EX,SYNTH-ONC-001-0075,14,FULVESTRANT,500,mg,INTRAMUSCULAR,ONCE,2022-08-13,2022-08-13
SYNTH-ONC-001,EX,SYNTH-ONC-001-0075,15,FULVESTRANT,500,mg,INTRAMUSCULAR,ONCE,2022-09-10,2022-09-10
SYNTH-ONC-001,EX,SYNTH-ONC-001-0075,16,FULVESTRANT,500,mg,INTRAMUSCULAR,ONCE,2022-10-08,2022-10-08
SYNTH-ONC-001,EX,SYNTH-ONC-001-0075,17,FULVESTRANT,500,mg,INTRAMUSCULAR,ONCE,2022-11-05,2022-11-05
SYNTH-ONC-001,EX,SYNTH-ONC-001-0075,18,FULVESTRANT,500,mg,INTRAMUSCULAR,ONCE,2022-12-03,2022-12-03
SYNTH-ONC-001,EX,SYNTH-ONC-001-0075,19,FULVESTRANT,500,mg,INTRAMUSCULAR,ONCE,2022-12-31,2022-12-31
SYNTH-ONC-001,EX,SYNTH-ONC-001-0075,20,FULVESTRANT,500,mg,INTRAMUSCULAR,ONCE,2023-01-28,2023-01-28
SYNTH-ONC-001,EX,SYNTH-ONC-001-0075,21,PLACEBO,10,mg,ORAL,QD,2021-09-11,2023-02-21
SYNTH-ONC-001,EX,SYNTH-ONC-001-0076,1,FULVESTRANT,500,mg,INTRAMUSCULAR,ONCE,2021-08-15,2021-08-15
SYNTH-ONC-001,EX,SYNTH-ONC-001-0076,2,FULVESTRANT,500,mg,INTRAMUSCULAR,ONCE,2021-08-29,2021-08-29
SYNTH-ONC-001,EX,SYNTH-ONC-001-0076,3,FULVESTRANT,500,mg,INTRAMUSCULAR,ONCE,2021-09-12,2021-09-12
SYNTH-ONC-001,EX,SYNTH-ONC-001-0076,4,FULVESTRANT,500,mg,INTRAMUSCULAR,ONCE,2021-10-10,2021-10-10
SYNTH-ONC-001,EX,SYNTH-ONC-001-0076,5,FULVESTRANT,500,mg,INTRAMUSCULAR,ONCE,2021-11-07,2021-11-07
SYNTH-ONC-001,EX,SYNTH-ONC-001-0076,6,FULVESTRANT,500,mg,INTRAMUSCULAR,ONCE,2021-12-05,2021-12-05
SYNTH-ONC-001,EX,SYNTH-ONC-001-0076,7,FULVESTRANT,500,mg,INTRAMUSCULAR,ONCE,2022-01-02,2022-01-02
SYNTH-ONC-001,EX,SYNTH-ONC-001-0076,8,FULVESTRANT,500,mg,INTRAMUSCULAR,ONCE,2022-01-30,2022-01-30
SYNTH-ONC-001,EX,SYNTH-ONC-001-0076,9,FULVESTRANT,500,mg,INTRAMUSCULAR,ONCE,2022-02-27,2022-02-27
SYNTH-ONC-001,EX,SYNTH-ONC-001-0076,10,FULVESTRANT,500,mg,INTRAMUSCULAR,ONCE,2022-03-27,2022-03-27
SYNTH-ONC-001,EX,SYNTH-ONC-001-0076,11,PLACEBO,10,mg,ORAL,QD,2021-08-15,2022-04-23
SYNTH-ONC-001,EX,SYNTH-ONC-001-0077,1,FULVESTRANT,500,mg,INTRAMUSCULAR,ONCE,2021-04-22,2021-04-22
SYNTH-ONC-001,EX,SYNTH-ONC-001-0077,2,FULVESTRANT,500,mg,INTRAMUSCULAR,ONCE,2021-05-06,2021-05-06
SYNTH-ONC-001,EX,SYNTH-ONC-001-0077,3,FULVESTRANT,500,mg,INTRAMUSCULAR,ONCE,2021-05-20,2021-05-20
SYNTH-ONC-001,EX,SYNTH-ONC-001-0077,4,FULVESTRANT,500,mg,INTRAMUSCULAR,ONCE,2021-06-17,2021-06-17
SYNTH-ONC-001,EX,SYNTH-ONC-001-0077,5,FULVESTRANT,500,mg,INTRAMUSCULAR,ONCE,2021-07-15,2021-07-15
SYNTH-ONC-001,EX,SYNTH-ONC-001-0077,6,FULVESTRANT,500,mg,INTRAMUSCULAR,ONCE,2021-08-12,2021-08-12
SYNTH-ONC-001,EX,SYNTH-ONC-001-0077,7,FULVESTRANT,500,mg,INTRAMUSCULAR,ONCE,2021-09-09,2021-09-09
SYNTH-ONC-001,EX,SYNTH-ONC-001-0077,8,FULVESTRANT,500,mg,INTRAMUSCULAR,ONCE,2021-10-07,2021-10-07
SYNTH-ONC-001,EX,SYNTH-ONC-001-0077,9,FULVESTRANT,500,mg,INTRAMUSCULAR,ONCE,2021-11-04,2021-11-04
SYNTH-ONC-001,EX,SYNTH-ONC-001-0077,10,FULVESTRANT,500,mg,INTRAMUSCULAR,ONCE,2021-12-02,2021-12-02
SYNTH-ONC-001,EX,SYNTH-ONC-001-0077,11,FULVESTRANT,500,mg,INTRAMUSCULAR,ONCE,2021-12-30,2021-12-30
SYNTH-ONC-001,EX,SYNTH-ONC-001-0077,12,EVEROLIMUS,10,mg,ORAL,QD,2021-04-22,2022-01-21
SYNTH-ONC-001,EX,SYNTH-ONC-001-0078,1,FULVESTRANT,500,mg,INTRAMUSCULAR,ONCE,2022-05-25,2022-05-25
SYNTH-ONC-001,EX,SYNTH-ONC-001-0078,2,FULVESTRANT,500,mg,INTRAMUSCULAR,ONCE,2022-06-08,2022-06-08
SYNTH-ONC-001,EX,SYNTH-ONC-001-0078,3,FULVESTRANT,500,mg,INTRAMUSCULAR,ONCE,2022-06-22,2022-06-22
SYNTH-ONC-001,EX,SYNTH-ONC-001-0078,4,FULVESTRANT,500,mg,INTRAMUSCULAR,ONCE,2022-07-20,2022-07-20
SYNTH-ONC-001,EX,SYNTH-ONC-001-0078,5,FULVESTRANT,500,mg,INTRAMUSCULAR,ONCE,2022-08-17,2022-08-17
SYNTH-ONC-001,EX,SYNTH-ONC-001-0078,6,FULVESTRANT,500,mg,INTRAMUSCULAR,ONCE,2022-09-14,2022-09-14
SYNTH-ONC-001,EX,SYNTH-ONC-001-0078,7,PLACEBO,10,mg,ORAL,QD,2022-05-25,2022-09-18
SYNTH-ONC-001,EX,SYNTH-ONC-001-0079,1,FULVESTRANT,500,mg,INTRAMUSCULAR,ONCE,2022-04-18,2022-04-18
SYNTH-ONC-001,EX,SYNTH-ONC-001-0079,2,FULVESTRANT,500,mg,INTRAMUSCULAR,ONCE,2022-05-02,2022-05-02
SYNTH-ONC-001,EX,SYNTH-ONC-001-0079,3,FULVESTRANT,500,mg,INTRAMUSCULAR,ONCE,2022-05-16,2022-05-16
SYNTH-ONC-001,EX,SYNTH-ONC-001-0079,4,FULVESTRANT,500,mg,INTRAMUSCULAR,ONCE,2022-06-13,2022-06-13
SYNTH-ONC-001,EX,SYNTH-ONC-001-0079,5,FULVESTRANT,500,mg,INTRAMUSCULAR,ONCE,2022-07-11,2022-07-11
SYNTH-ONC-001,EX,SYNTH-ONC-001-0079,6,FULVESTRANT,500,mg,INTRAMUSCULAR,ONCE,2022-08-08,2022-08-08
SYNTH-ONC-001,EX,SYNTH-ONC-001-0079,7,FULVESTRANT,500,mg,INTRAMUSCULAR,ONCE,2022-09-05,2022-09-05
SYNTH-ONC-001,EX,SYNTH-ONC-001-0079,8,FULVESTRANT,500,mg,INTRAMUSCULAR,ONCE,2022-10-03,2022-10-03
SYNTH-ONC-001,EX,SYNTH-ONC-001-0079,9,FULVESTRANT,500,mg,INTRAMUSCULAR,ONCE,2022-10-31,2022-10-31
SYNTH-ONC-001,EX,SYNTH-ONC-001-0079,10,FULVESTRANT,500,mg,INTRAMUSCULAR,ONCE,2022-11-28,2022-11-28
SYNTH-ONC-001,EX,SYNTH-ONC-001-0079,11,FULVESTRANT,500,mg,INTRAMUSCULAR,ONCE,2022-12-26,2022-12-26
SYNTH-ONC-001,EX,SYNTH-ONC-001-0079,12,FULVESTRANT,500,mg,INTRAMUSCULAR,ONCE,2023-01-23,2023-01-23
SYNTH-ONC-001,EX,SYNTH-ONC-001-0079,13,FULVESTRANT,500,mg,INTRAMUSCULAR,ONCE,2023-02-20,2023-02-20
SYNTH-ONC-001,EX,SYNTH-ONC-001-0079,14,FULVESTRANT,500,mg,INTRAMUSCULAR,ONCE,2023-03-20,2023-03-20
SYNTH-ONC-001,EX,SYNTH-ONC-001-0079,15,FULVESTRANT,500,mg,INTRAMUSCULAR,ONCE,2023-04-17,2023-04-17
SYNTH-ONC-001,EX,SYNTH-ONC-001-0079,16,FULVESTRANT,500,mg,INTRAMUSCULAR,ONCE,2023-05-15,2023-05-15
SYNTH-ONC-001,EX,SYNTH-ONC-001-0079,17,FULVESTRANT,500,mg,INTRAMUSCULAR,ONCE,2023-06-12,2023-06-12
SYNTH-ONC-001,EX,SYNTH-ONC-001-0079,18,FULVESTRANT,500,mg,INTRAMUSCULAR,ONCE,2023-07-10,2023-07-10
SYNTH-ONC-001,EX,SYNTH-ONC-001-0079,19,PLACEBO,10,mg,ORAL,QD,2022-04-18,2023-07-20
SYNTH-ONC-001,EX,SYNTH-ONC-001-0080,1,FULVESTRANT,500,mg,INTRAMUSCULAR,ONCE,2021-04-09,2021-04-09
SYNTH-ONC-001,EX,SYNTH-ONC-001-0080,2,FULVESTRANT,500,mg,INTRAMUSCULAR,ONCE,2021-04-23,2021-04-23
SYNTH-ONC-001,EX,SYNTH-ONC-001-0080,3,FULVESTRANT,500,mg,INTRAMUSCULAR,ONCE,2021-05-07,2021-05-07
SYNTH-ONC-001,EX,SYNTH-ONC-001-0080,4,FULVESTRANT,500,mg,INTRAMUSCULAR,ONCE,2021-06-04,2021-06-04
SYNTH-ONC-001,EX,SYNTH-ONC-001-0080,5,FULVESTRANT,500,mg,INTRAMUSCULAR,ONCE,2021-07-02,2021-07-02
SYNTH-ONC-001,EX,SYNTH-ONC-001-0080,6,FULVESTRANT,500,mg,INTRAMUSCULAR,ONCE,2021-07-30,2021-07-30
SYNTH-ONC-001,EX,SYNTH-ONC-001-0080,7,FULVESTRANT,500,mg,INTRAMUSCULAR,ONCE,2021-08-27,2021-08-27
SYNTH-ONC-001,EX,SYNTH-ONC-001-0080,8,PLACEBO,10,mg,ORAL,QD,2021-04-09,2021-09-14
SYNTH-ONC-001,EX,SYNTH-ONC-001-0081,1,FULVESTRANT,500,mg,INTRAMUSCULAR,ONCE,2021-06-02,2021-06-02
SYNTH-ONC-001,EX,SYNTH-ONC-001-0081,2,FULVESTRANT,500,mg,INTRAMUSCULAR,ONCE,2021-06-16,2021-06-16
SYNTH-ONC-001,EX,SYNTH-ONC-001-0081,3,FULVESTRANT,500,mg,INTRAMUSCULAR,ONCE,2021-06-30,2021-06-30
SYNTH-ONC-001,EX,SYNTH-ONC-001-0081,4,FULVESTRANT,500,mg,INTRAMUSCULAR,ONCE,2021-07-28,2021-07-28
SYNTH-ONC-001,EX,SYNTH-ONC-001-0081,5,FULVESTRANT,500,mg,INTRAMUSCULAR,ONCE,2021-08-25,2021-08-25
SYNTH-ONC-001,EX,SYNTH-ONC-001-0081,6,FULVESTRANT,500,mg,INTRAMUSCULAR,ONCE,2021-09-22,2021-09-22
SYNTH-ONC-001,EX,SYNTH-ONC-001-0081,7,FULVESTRANT,500,mg,INTRAMUSCULAR,ONCE,2021-10-20,2021-10-20
SYNTH-ONC-001,EX,SYNTH-ONC-001-0081,8,FULVESTRANT,500,mg,INTRAMUSCULAR,ONCE,2021-11-17,2021-11-17
SYNTH-ONC-001,EX,SYNTH-ONC-001-0081,9,FULVESTRANT,500,mg,INTRAMUSCULAR,ONCE,2021-12-15,2021-12-15
SYNTH-ONC-001,EX,SYNTH-ONC-001-0081,10,FULVESTRANT,500,mg,INTRAMUSCULAR,ONCE,2022-01-12,2022-01-12
SYNTH-ONC-001,EX,SYNTH-ONC-001-0081,11,FULVESTRANT,500,mg,INTRAMUSCULAR,ONCE,2022-02-09,2022-02-09
SYNTH-ONC-001,EX,SYNTH-ONC-001-0081,12,FULVESTRANT,500,mg,INTRAMUSCULAR,ONCE,2022-03-09,2022-03-09
SYNTH-ONC-001,EX,SYNTH-ONC-001-0081,13,FULVESTRANT,500,mg,INTRAMUSCULAR,ONCE,2022-04-06,2022-04-06
SYNTH-ONC-001,EX,SYNTH-ONC-001-0081,14,FULVESTRANT,500,mg,INTRAMUSCULAR,ONCE,2022-05-04,2022-05-04
SYNTH-ONC-001,EX,SYNTH-ONC-001-0081,15,FULVESTRANT,500,mg,INTRAMUSCULAR,ONCE,2022-06-01,2022-06-01
SYNTH-ONC-001,EX,SYNTH-ONC-001-0081,16,EVEROLIMUS,10,mg,ORAL,QD,2021-06-02,2022-06-01
SYNTH-ONC-001,EX,SYNTH-ONC-001-0082,1,FULVESTRANT,500,mg,INTRAMUSCULAR,ONCE,2021-12-04,2021-12-04
SYNTH-ONC-001,EX,SYNTH-ONC-001-0082,2,FULVESTRANT,500,mg,INTRAMUSCULAR,ONCE,2021-12-18,2021-12-18
SYNTH-ONC-001,EX,SYNTH-ONC-001-0082,3,FULVESTRANT,500,mg,INTRAMUSCULAR,ONCE,2022-01-01,2022-01-01
SYNTH-ONC-001,EX,SYNTH-ONC-001-0082,4,FULVESTRANT,500,mg,INTRAMUSCULAR,ONCE,2022-01-29,2022-01-29
SYNTH-ONC-001,EX,SYNTH-ONC-001-0082,5,FULVESTRANT,500,mg,INTRAMUSCULAR,ONCE,2022-02-26,2022-02-26
SYNTH-ONC-001,EX,SYNTH-ONC-001-0082,6,FULVESTRANT,500,mg,INTRAMUSCULAR,ONCE,2022-03-26,2022-03-26
SYNTH-ONC-001,EX,SYNTH-ONC-001-0082,7,FULVESTRANT,500,mg,INTRAMUSCULAR,ONCE,2022-04-23,2022-04-23
SYNTH-ONC-001,EX,SYNTH-ONC-001-0082,8,FULVESTRANT,500,mg,INTRAMUSCULAR,ONCE,2022-05-21,2022-05-21
SYNTH-ONC-001,EX,SYNTH-ONC-001-0082,9,FULVESTRANT,500,mg,INTRAMUSCULAR,ONCE,2022-06-18,2022-06-18
SYNTH-ONC-001,EX,SYNTH-ONC-001-0082,10,FULVESTRANT,500,mg,INTRAMUSCULAR,ONCE,2022-07-16,2022-07-16
SYNTH-ONC-001,EX,SYNTH-ONC-001-0082,11,FULVESTRANT,500,mg,INTRAMUSCULAR,ONCE,2022-08-13,2022-08-13
SYNTH-ONC-001,EX,SYNTH-ONC-001-0082,12,FULVESTRANT,500,mg,INTRAMUSCULAR,ONCE,2022-09-10,2022-09-10
SYNTH-ONC-001,EX,SYNTH-ONC-001-0082,13,FULVESTRANT,500,mg,INTRAMUSCULAR,ONCE,2022-10-08,2022-10-08
SYNTH-ONC-001,EX,SYNTH-ONC-001-0082,14,FULVESTRANT,500,mg,INTRAMUSCULAR,ONCE,2022-11-05,2022-11-05
SYNTH-ONC-001,EX,SYNTH-ONC-001-0082,15,FULVESTRANT,500,mg,INTRAMUSCULAR,ONCE,2022-12-03,2022-12-03
SYNTH-ONC-001,EX,SYNTH-ONC-001-0082,16,FULVESTRANT,500,mg,INTRAMUSCULAR,ONCE,2022-12-31,2022-12-31
SYNTH-ONC-001,EX,SYNTH-ONC-001-0082,17,FULVESTRANT,500,mg,INTRAMUSCULAR,ONCE,2023-01-28,2023-01-28
SYNTH-ONC-001,EX,SYNTH-ONC-001-0082,18,FULVESTRANT,500,mg,INTRAMUSCULAR,ONCE,2023-02-25,2023-02-25
SYNTH-ONC-001,EX,SYNTH-ONC-001-0082,19,FULVESTRANT,500,mg,INTRAMUSCULAR,ONCE,2023-03-25,2023-03-25
SYNTH-ONC-001,EX,SYNTH-ONC-001-0082,20,FULVESTRANT,500,mg,INTRAMUSCULAR,ONCE,2023-04-22,2023-04-22
SYNTH-ONC-001,EX,SYNTH-ONC-001-0082,21,EVEROLIMUS,10,mg,ORAL,QD,2021-12-04,2023-05-01
SYNTH-ONC-001,EX,SYNTH-ONC-001-0083,1,FULVESTRANT,500,mg,INTRAMUSCULAR,ONCE,2022-12-07,2022-12-07
SYNTH-ONC-001,EX,SYNTH-ONC-001-0083,2,FULVESTRANT,500,mg,INTRAMUSCULAR,ONCE,2022-12-21,2022-12-21
SYNTH-ONC-001,EX,SYNTH-ONC-001-0083,3,FULVESTRANT,500,mg,INTRAMUSCULAR,ONCE,2023-01-04,2023-01-04
SYNTH-ONC-001,EX,SYNTH-ONC-001-0083,4,FULVESTRANT,500,mg,INTRAMUSCULAR,ONCE,2023-02-01,2023-02-01
SYNTH-ONC-001,EX,SYNTH-ONC-001-0083,5,FULVESTRANT,500,mg,INTRAMUSCULAR,ONCE,2023-03-01,2023-03-01
SYNTH-ONC-001,EX,SYNTH-ONC-001-0083,6,EVEROLIMUS,10,mg,ORAL,QD,2022-12-07,2023-03-25
SYNTH-ONC-001,EX,SYNTH-ONC-001-0084,1,FULVESTRANT,500,mg,INTRAMUSCULAR,ONCE,2021-06-12,2021-06-12
SYNTH-ONC-001,EX,SYNTH-ONC-001-0084,2,FULVESTRANT,500,mg,INTRAMUSCULAR,ONCE,2021-06-26,2021-06-26
SYNTH-ONC-001,EX,SYNTH-ONC-001-0084,3,FULVESTRANT,500,mg,INTRAMUSCULAR,ONCE,2021-07-10,2021-07-10
SYNTH-ONC-001,EX,SYNTH-ONC-001-0084,4,FULVESTRANT,500,mg,INTRAMUSCULAR,ONCE,2021-08-07,2021-08-07
SYNTH-ONC-001,EX,SYNTH-ONC-001-0084,5,FULVESTRANT,500,mg,INTRAMUSCULAR,ONCE,2021-09-04,2021-09-04
SYNTH-ONC-001,EX,SYNTH-ONC-001-0084,6,FULVESTRANT,500,mg,INTRAMUSCULAR,ONCE,2021-10-02,2021-10-02
SYNTH-ONC-001,EX,SYNTH-ONC-001-0084,7,FULVESTRANT,500,mg,INTRAMUSCULAR,ONCE,2021-10-30,2021-10-30
SYNTH-ONC-001,EX,SYNTH-ONC-001-0084,8,FULVESTRANT,500,mg,INTRAMUSCULAR,ONCE,2021-11-27,2021-11-27
SYNTH-ONC-001,EX,SYNTH-ONC-001-0084,9,FULVESTRANT,500,mg,INTRAMUSCULAR,ONCE,2021-12-25,2021-12-25
SYNTH-ONC-001,EX,SYNTH-ONC-001-0084,10,FULVESTRANT,500,mg,INTRAMUSCULAR,ONCE,2022-01-22,2022-01-22
SYNTH-ONC-001,EX,SYNTH-ONC-001-0084,11,FULVESTRANT,500,mg,INTRAMUSCULAR,ONCE,2022-02-19,2022-02-19
SYNTH-ONC-001,EX,SYNTH-ONC-001-0084,12,FULVESTRANT,500,mg,INTRAMUSCULAR,ONCE,2022-03-19,2022-03-19
SYNTH-ONC-001,EX,SYNTH-ONC-001-0084,13,FULVESTRANT,500,mg,INTRAMUSCULAR,ONCE,2022-04-16,2022-04-16
SYNTH-ONC-001,EX,SYNTH-ONC-001-0084,14,FULVESTRANT,500,mg,INTRAMUSCULAR,ONCE,2022-05-14,2022-05-14
SYNTH-ONC-001,EX,SYNTH-ONC-001-0084,15,PLACEBO,10,mg,ORAL,QD,2021-06-12,2022-05-27
SYNTH-ONC-001,EX,SYNTH-ONC-001-0085,1,FULVESTRANT,500,mg,INTRAMUSCULAR,ONCE,2022-12-21,2022-12-21
SYNTH-ONC-001,EX,SYNTH-ONC-001-0085,2,FULVESTRANT,500,mg,INTRAMUSCULAR,ONCE,2023-01-04,2023-01-04
SYNTH-ONC-001,EX,SYNTH-ONC-001-0085,3,FULVESTRANT,500,mg,INTRAMUSCULAR,ONCE,2023-01-18,2023-01-18
SYNTH-ONC-001,EX,SYNTH-ONC-001-0085,4,FULVESTRANT,500,mg,INTRAMUSCULAR,ONCE,2023-02-15,2023-02-15
SYNTH-ONC-001,EX,SYNTH-ONC-001-0085,5,FULVESTRANT,500,mg,INTRAMUSCULAR,ONCE,2023-03-15,2023-03-15
SYNTH-ONC-001,EX,SYNTH-ONC-001-0085,6,FULVESTRANT,500,mg,INTRAMUSCULAR,ONCE,2023-04-12,2023-04-12
SYNTH-ONC-001,EX,SYNTH-ONC-001-0085,7,FULVESTRANT,500,mg,INTRAMUSCULAR,ONCE,2023-05-10,2023-05-10
SYNTH-ONC-001,EX,SYNTH-ONC-001-0085,8,FULVESTRANT,500,mg,INTRAMUSCULAR,ONCE,2023-06-07,2023-06-07
SYNTH-ONC-001,EX,SYNTH-ONC-001-0085,9,PLACEBO,10,mg,ORAL,QD,2022-12-21,2023-06-24
SYNTH-ONC-001,EX,SYNTH-ONC-001-0086,1,FULVESTRANT,500,mg,INTRAMUSCULAR,ONCE,2022-11-12,2022-11-12
SYNTH-ONC-001,EX,SYNTH-ONC-001-0086,2,FULVESTRANT,500,mg,INTRAMUSCULAR,ONCE,2022-11-26,2022-11-26
SYNTH-ONC-001,EX,SYNTH-ONC-001-0086,3,FULVESTRANT,500,mg,INTRAMUSCULAR,ONCE,2022-12-10,2022-12-10
SYNTH-ONC-001,EX,SYNTH-ONC-001-0086,4,FULVESTRANT,500,mg,INTRAMUSCULAR,ONCE,2023-01-07,2023-01-07
SYNTH-ONC-001,EX,SYNTH-ONC-001-0086,5,FULVESTRANT,500,mg,INTRAMUSCULAR,ONCE,2023-02-04,2023-02-04
SYNTH-ONC-001,EX,SYNTH-ONC-001-0086,6,FULVESTRANT,500,mg,INTRAMUSCULAR,ONCE,2023-03-04,2023-03-04
SYNTH-ONC-001,EX,SYNTH-ONC-001-0086,7,FULVESTRANT,500,mg,INTRAMUSCULAR,ONCE,2023-04-01,2023-04-01
SYNTH-ONC-001,EX,SYNTH-ONC-001-0086,8,FULVESTRANT,500,mg,INTRAMUSCULAR,ONCE,2023-04-29,2023-04-29
SYNTH-ONC-001,EX,SYNTH-ONC-001-0086,9,FULVESTRANT,500,mg,INTRAMUSCULAR,ONCE,2023-05-27,2023-05-27
SYNTH-ONC-001,EX,SYNTH-ONC-001-0086,10,FULVESTRANT,500,mg,INTRAMUSCULAR,ONCE,2023-06-24,2023-06-24
SYNTH-ONC-001,EX,SYNTH-ONC-001-0086,11,EVEROLIMUS,10,mg,ORAL,QD,2022-11-12,2023-07-15
SYNTH-ONC-001,EX,SYNTH-ONC-001-0087,1,FULVESTRANT,500,mg,INTRAMUSCULAR,ONCE,2021-06-10,2021-06-10
SYNTH-ONC-001,EX,SYNTH-ONC-001-0087,2,FULVESTRANT,500,mg,INTRAMUSCULAR,ONCE,2021-06-24,2021-06-24
SYNTH-ONC-001,EX,SYNTH-ONC-001-0087,3,FULVESTRANT,500,mg,INTRAMUSCULAR,ONCE,2021-07-08,2021-07-08
SYNTH-ONC-001,EX,SYNTH-ONC-001-0087,4,FULVESTRANT,500,mg,INTRAMUSCULAR,ONCE,2021-08-05,2021-08-05
SYNTH-ONC-001,EX,SYNTH-ONC-001-0087,5,FULVESTRANT,500,mg,INTRAMUSCULAR,ONCE,2021-09-02,2021-09-02
SYNTH-ONC-001,EX,SYNTH-ONC-001-0087,6,FULVESTRANT,500,mg,INTRAMUSCULAR,ONCE,2021-09-30,2021-09-30
SYNTH-ONC-001,EX,SYNTH-ONC-001-0087,7,FULVESTRANT,500,mg,INTRAMUSCULAR,ONCE,2021-10-28,2021-10-28
SYNTH-ONC-001,EX,SYNTH-ONC-001-0087,8,FULVESTRANT,500,mg,INTRAMUSCULAR,ONCE,2021-11-25,2021-11-25
SYNTH-ONC-001,EX,SYNTH-ONC-001-0087,9,FULVESTRANT,500,mg,INTRAMUSCULAR,ONCE,2021-12-23,2021-12-23
SYNTH-ONC-001,EX,SYNTH-ONC-001-0087,10,FULVESTRANT,500,mg,INTRAMUSCULAR,ONCE,2022-01-20,2022-01-20
SYNTH-ONC-001,EX,SYNTH-ONC-001-0087,11,FULVESTRANT,500,mg,INTRAMUSCULAR,ONCE,2022-02-17,2022-02-17
SYNTH-ONC-001,EX,SYNTH-ONC-001-0087,12,FULVESTRANT,500,mg,INTRAMUSCULAR,ONCE,2022-03-17,2022-03-17
SYNTH-ONC-001,EX,SYNTH-ONC-001-0087,13,FULVESTRANT,500,mg,INTRAMUSCULAR,ONCE,2022-04-14,2022-04-14
SYNTH-ONC-001,EX,SYNTH-ONC-001-0087,14,PLACEBO,10,mg,ORAL,QD,2021-06-10,2022-04-21
SYNTH-ONC-001,EX,SYNTH-ONC-001-0088,1,FULVESTRANT,500,mg,INTRAMUSCULAR,ONCE,2022-08-03,2022-08-03
SYNTH-ONC-001,EX,SYNTH-ONC-001-0088,2,FULVESTRANT,500,mg,INTRAMUSCULAR,ONCE,2022-08-17,2022-08-17
SYNTH-ONC-001,EX,SYNTH-ONC-001-0088,3,FULVESTRANT,500,mg,INTRAMUSCULAR,ONCE,2022-08-31,2022-08-31
SYNTH-ONC-001,EX,SYNTH-ONC-001-0088,4,FULVESTRANT,500,mg,INTRAMUSCULAR,ONCE,2022-09-28,2022-09-28
SYNTH-ONC-001,EX,SYNTH-ONC-001-0088,5,FULVESTRANT,500,mg,INTRAMUSCULAR,ONCE,2022-10-26,2022-10-26
SYNTH-ONC-001,EX,SYNTH-ONC-001-0088,6,FULVESTRANT,500,mg,INTRAMUSCULAR,ONCE,2022-11-23,2022-11-23
SYNTH-ONC-001,EX,SYNTH-ONC-001-0088,7,FULVESTRANT,500,mg,INTRAMUSCULAR,ONCE,2022-12-21,2022-12-21
SYNTH-ONC-001,EX,SYNTH-ONC-001-0088,8,FULVESTRANT,500,mg,INTRAMUSCULAR,ONCE,2023-01-18,2023-01-18
SYNTH-ONC-001,EX,SYNTH-ONC-001-0088,9,FULVESTRANT,500,mg,INTRAMUSCULAR,ONCE,2023-02-15,2023-02-15
SYNTH-ONC-001,EX,SYNTH-ONC-001-0088,10,FULVESTRANT,500,mg,INTRAMUSCULAR,ONCE,2023-03-15,2023-03-15
SYNTH-ONC-001,EX,SYNTH-ONC-001-0088,11,EVEROLIMUS,10,mg,ORAL,QD,2022-08-03,2023-04-11
SYNTH-ONC-001,EX,SYNTH-ONC-001-0089,1,FULVESTRANT,500,mg,INTRAMUSCULAR,ONCE,2022-02-02,2022-02-02
SYNTH-ONC-001,EX,SYNTH-ONC-001-0089,2,FULVESTRANT,500,mg,INTRAMUSCULAR,ONCE,2022-02-16,2022-02-16
SYNTH-ONC-001,EX,SYNTH-ONC-001-0089,3,FULVESTRANT,500,mg,INTRAMUSCULAR,ONCE,2022-03-02,2022-03-02
SYNTH-ONC-001,EX,SYNTH-ONC-001-0089,4,FULVESTRANT,500,mg,INTRAMUSCULAR,ONCE,2022-03-30,2022-03-30
SYNTH-ONC-001,EX,SYNTH-ONC-001-0089,5,FULVESTRANT,500,mg,INTRAMUSCULAR,ONCE,2022-04-27,2022-04-27
SYNTH-ONC-001,EX,SYNTH-ONC-001-0089,6,FULVESTRANT,500,mg,INTRAMUSCULAR,ONCE,2022-05-25,2022-05-25
SYNTH-ONC-001,EX,SYNTH-ONC-001-0089,7,FULVESTRANT,500,mg,INTRAMUSCULAR,ONCE,2022-06-22,2022-06-22
SYNTH-ONC-001,EX,SYNTH-ONC-001-0089,8,FULVESTRANT,500,mg,INTRAMUSCULAR,ONCE,2022-07-20,2022-07-20
SYNTH-ONC-001,EX,SYNTH-ONC-001-0089,9,FULVESTRANT,500,mg,INTRAMUSCULAR,ONCE,2022-08-17,2022-08-17
SYNTH-ONC-001,EX,SYNTH-ONC-001-0089,10,FULVESTRANT,500,mg,INTRAMUSCULAR,ONCE,2022-09-14,2022-09-14
SYNTH-ONC-001,EX,SYNTH-ONC-001-0089,11,FULVESTRANT,500,mg,INTRAMUSCULAR,ONCE,2022-10-12,2022-10-12
SYNTH-ONC-001,EX,SYNTH-ONC-001-0089,12,FULVESTRANT,500,mg,INTRAMUSCULAR,ONCE,2022-11-09,2022-11-09
SYNTH-ONC-001,EX,SYNTH-ONC-001-0089,13,FULVESTRANT,500,mg,INTRAMUSCULAR,ONCE,2022-12-07,2022-12-07
SYNTH-ONC-001,EX,SYNTH-ONC-001-0089,14,FULVESTRANT,500,mg,INTRAMUSCULAR,ONCE,2023-01-04,2023-01-04
SYNTH-ONC-001,EX,SYNTH-ONC-001-0089,15,FULVESTRANT,500,mg,INTRAMUSCULAR,ONCE,2023-02-01,2023-02-01
SYNTH-ONC-001,EX,SYNTH-ONC-001-0089,16,FULVESTRANT,500,mg,INTRAMUSCULAR,ONCE,2023-03-01,2023-03-01
SYNTH-ONC-001,EX,SYNTH-ONC-001-0089,17,PLACEBO,10,mg,ORAL,QD,2022-02-02,2023-03-19
SYNTH-ONC-001,EX,SYNTH-ONC-001-0090,1,FULVESTRANT,500,mg,INTRAMUSCULAR,ONCE,2021-10-04,2021-10-04
SYNTH-ONC-001,EX,SYNTH-ONC-001-0090,2,FULVESTRANT,500,mg,INTRAMUSCULAR,ONCE,2021-10-18,2021-10-18
SYNTH-ONC-001,EX,SYNTH-ONC-001-0090,3,FULVESTRANT,500,mg,INTRAMUSCULAR,ONCE,2021-11-01,2021-11-01
SYNTH-ONC-001,EX,SYNTH-ONC-001-0090,4,FULVESTRANT,500,mg,INTRAMUSCULAR,ONCE,2021-11-29,2021-11-29
SYNTH-ONC-001,EX,SYNTH-ONC-001-0090,5,FULVESTRANT,500,mg,INTRAMUSCULAR,ONCE,2021-12-27,2021-12-27
SYNTH-ONC-001,EX,SYNTH-ONC-001-0090,6,FULVESTRANT,500,mg,INTRAMUSCULAR,ONCE,2022-01-24,2022-01-24
SYNTH-ONC-001,EX,SYNTH-ONC-001-0090,7,FULVESTRANT,500,mg,INTRAMUSCULAR,ONCE,2022-02-21,2022-02-21
SYNTH-ONC-001,EX,SYNTH-ONC-001-0090,8,FULVESTRANT,500,mg,INTRAMUSCULAR,ONCE,2022-03-21,2022-03-21
SYNTH-ONC-001,EX,SYNTH-ONC-001-0090,9,FULVESTRANT,500,mg,INTRAMUSCULAR,ONCE,2022-04-18,2022-04-18
SYNTH-ONC-001,EX,SYNTH-ONC-001-0090,10,FULVESTRANT,500,mg,INTRAMUSCULAR,ONCE,2022-05-16,2022-05-16
SYNTH-ONC-001,EX,SYNTH-ONC-001-0090,11,FULVESTRANT,500,mg,INTRAMUSCULAR,ONCE,2022-06-13,2022-06-13
SYNTH-ONC-001,EX,SYNTH-ONC-001-0090,12,FULVESTRANT,500,mg,INTRAMUSCULAR,ONCE,2022-07-11,2022-07-11
SYNTH-ONC-001,EX,SYNTH-ONC-001-0090,13,FULVESTRANT,500,mg,INTRAMUSCULAR,ONCE,2022-08-08,2022-08-08
SYNTH-ONC-001,EX,SYNTH-ONC-001-0090,14,EVEROLIMUS,10,mg,ORAL,QD,2021-10-04,2022-08-18
SYNTH-ONC-001,EX,SYNTH-ONC-001-0091,1,FULVESTRANT,500,mg,INTRAMUSCULAR,ONCE,2022-05-19,2022-05-19
SYNTH-ONC-001,EX,SYNTH-ONC-001-0091,2,FULVESTRANT,500,mg,INTRAMUSCULAR,ONCE,2022-06-02,2022-06-02
SYNTH-ONC-001,EX,SYNTH-ONC-001-0091,3,FULVESTRANT,500,mg,INTRAMUSCULAR,ONCE,2022-06-16,2022-06-16
SYNTH-ONC-001,EX,SYNTH-ONC-001-0091,4,FULVESTRANT,500,mg,INTRAMUSCULAR,ONCE,2022-07-14,2022-07-14
SYNTH-ONC-001,EX,SYNTH-ONC-001-0091,5,FULVESTRANT,500,mg,INTRAMUSCULAR,ONCE,2022-08-11,2022-08-11
SYNTH-ONC-001,EX,SYNTH-ONC-001-0091,6,FULVESTRANT,500,mg,INTRAMUSCULAR,ONCE,2022-09-08,2022-09-08
SYNTH-ONC-001,EX,SYNTH-ONC-001-0091,7,FULVESTRANT,500,mg,INTRAMUSCULAR,ONCE,2022-10-06,2022-10-06
SYNTH-ONC-001,EX,SYNTH-ONC-001-0091,8,FULVESTRANT,500,mg,INTRAMUSCULAR,ONCE,2022-11-03,2022-11-03
SYNTH-ONC-001,EX,SYNTH-ONC-001-0091,9,FULVESTRANT,500,mg,INTRAMUSCULAR,ONCE,2022-12-01,2022-12-01
SYNTH-ONC-001,EX,SYNTH-ONC-001-0091,10,FULVESTRANT,500,mg,INTRAMUSCULAR,ONCE,2022-12-29,2022-12-29
SYNTH-ONC-001,EX,SYNTH-ONC-001-0091,11,FULVESTRANT,500,mg,INTRAMUSCULAR,ONCE,2023-01-26,2023-01-26
SYNTH-ONC-001,EX,SYNTH-ONC-001-0091,12,FULVESTRANT,500,mg,INTRAMUSCULAR,ONCE,2023-02-23,2023-02-23
SYNTH-ONC-001,EX,SYNTH-ONC-001-0091,13,FULVESTRANT,500,mg,INTRAMUSCULAR,ONCE,2023-03-23,2023-03-23
SYNTH-ONC-001,EX,SYNTH-ONC-001-0091,14,FULVESTRANT,500,mg,INTRAMUSCULAR,ONCE,2023-04-20,2023-04-20
SYNTH-ONC-001,EX,SYNTH-ONC-001-0091,15,FULVESTRANT,500,mg,INTRAMUSCULAR,ONCE,2023-05-18,2023-05-18
SYNTH-ONC-001,EX,SYNTH-ONC-001-0091,16,EVEROLIMUS,10,mg,ORAL,QD,2022-05-19,2023-05-29
SYNTH-ONC-001,EX,SYNTH-ONC-001-0092,1,FULVESTRANT,500,mg,INTRAMUSCULAR,ONCE,2022-01-27,2022-01-27
SYNTH-ONC-001,EX,SYNTH-ONC-001-0092,2,FULVESTRANT,500,mg,INTRAMUSCULAR,ONCE,2022-02-10,2022-02-10
SYNTH-ONC-001,EX,SYNTH-ONC-001-0092,3,FULVESTRANT,500,mg,INTRAMUSCULAR,ONCE,2022-02-24,2022-02-24
SYNTH-ONC-001,EX,SYNTH-ONC-001-0092,4,FULVESTRANT,500,mg,INTRAMUSCULAR,ONCE,2022-03-24,2022-03-24
SYNTH-ONC-001,EX,SYNTH-ONC-001-0092,5,FULVESTRANT,500,mg,INTRAMUSCULAR,ONCE,2022-04-21,2022-04-21
SYNTH-ONC-001,EX,SYNTH-ONC-001-0092,6,FULVESTRANT,500,mg,INTRAMUSCULAR,ONCE,2022-05-19,2022-05-19
SYNTH-ONC-001,EX,SYNTH-ONC-001-0092,7,FULVESTRANT,500,mg,INTRAMUSCULAR,ONCE,2022-06-16,2022-06-16
SYNTH-ONC-001,EX,SYNTH-ONC-001-0092,8,FULVESTRANT,500,mg,INTRAMUSCULAR,ONCE,2022-07-14,2022-07-14
SYNTH-ONC-001,EX,SYNTH-ONC-001-0092,9,FULVESTRANT,500,mg,INTRAMUSCULAR,ONCE,2022-08-11,2022-08-11
SYNTH-ONC-001,EX,SYNTH-ONC-001-0092,10,FULVESTRANT,500,mg,INTRAMUSCULAR,ONCE,2022-09-08,2022-09-08
SYNTH-ONC-001,EX,SYNTH-ONC-001-0092,11,FULVESTRANT,500,mg,INTRAMUSCULAR,ONCE,2022-10-06,2022-10-06
SYNTH-ONC-001,EX,SYNTH-ONC-001-0092,12,FULVESTRANT,500,mg,INTRAMUSCULAR,ONCE,2022-11-03,2022-11-03
SYNTH-ONC-001,EX,SYNTH-ONC-001-0092,13,FULVESTRANT,500,mg,INTRAMUSCULAR,ONCE,2022-12-01,2022-12-01
SYNTH-ONC-001,EX,SYNTH-ONC-001-0092,14,FULVESTRANT,500,mg,INTRAMUSCULAR,ONCE,2022-12-29,2022-12-29
SYNTH-ONC-001,EX,SYNTH-ONC-001-0092,15,FULVESTRANT,500,mg,INTRAMUSCULAR,ONCE,2023-01-26,2023-01-26
SYNTH-ONC-001,EX,SYNTH-ONC-001-0092,16,FULVESTRANT,500,mg,INTRAMUSCULAR,ONCE,2023-02-23,2023-02-23
SYNTH-ONC-001,EX,SYNTH-ONC-001-0092,17,FULVESTRANT,500,mg,INTRAMUSCULAR,ONCE,2023-03-23,2023-03-23
SYNTH-ONC-001,EX,SYNTH-ONC-001-0092,18,FULVESTRANT,500,mg,INTRAMUSCULAR,ONCE,2023-04-20,2023-04-20
SYNTH-ONC-001,EX,SYNTH-ONC-001-0092,19,PLACEBO,10,mg,ORAL,QD,2022-01-27,2023-04-29
SYNTH-ONC-001,EX,SYNTH-ONC-001-0093,1,FULVESTRANT,500,mg,INTRAMUSCULAR,ONCE,2021-05-15,2021-05-15
SYNTH-ONC-001,EX,SYNTH-ONC-001-0093,2,FULVESTRANT,500,mg,INTRAMUSCULAR,ONCE,2021-05-29,2021-05-29
SYNTH-ONC-001,EX,SYNTH-ONC-001-0093,3,FULVESTRANT,500,mg,INTRAMUSCULAR,ONCE,2021-06-12,2021-06-12
SYNTH-ONC-001,EX,SYNTH-ONC-001-0093,4,FULVESTRANT,500,mg,INTRAMUSCULAR,ONCE,2021-07-10,2021-07-10
SYNTH-ONC-001,EX,SYNTH-ONC-001-0093,5,FULVESTRANT,500,mg,INTRAMUSCULAR,ONCE,2021-08-07,2021-08-07
SYNTH-ONC-001,EX,SYNTH-ONC-001-0093,6,FULVESTRANT,500,mg,INTRAMUSCULAR,ONCE,2021-09-04,2021-09-04
SYNTH-ONC-001,EX,SYNTH-ONC-001-0093,7,FULVESTRANT,500,mg,INTRAMUSCULAR,ONCE,2021-10-02,2021-10-02
SYNTH-ONC-001,EX,SYNTH-ONC-001-0093,8,FULVESTRANT,500,mg,INTRAMUSCULAR,ONCE,2021-10-30,2021-10-30
SYNTH-ONC-001,EX,SYNTH-ONC-001-0093,9,FULVESTRANT,500,mg,INTRAMUSCULAR,ONCE,2021-11-27,2021-11-27
SYNTH-ONC-001,EX,SYNTH-ONC-001-0093,10,FULVESTRANT,500,mg,INTRAMUSCULAR,ONCE,2021-12-25,2021-12-25
SYNTH-ONC-001,EX,SYNTH-ONC-001-0093,11,FULVESTRANT,500,mg,INTRAMUSCULAR,ONCE,2022-01-22,2022-01-22
SYNTH-ONC-001,EX,SYNTH-ONC-001-0093,12,FULVESTRANT,500,mg,INTRAMUSCULAR,ONCE,2022-02-19,2022-02-19
SYNTH-ONC-001,EX,SYNTH-ONC-001-0093,13,FULVESTRANT,500,mg,INTRAMUSCULAR,ONCE,2022-03-19,2022-03-19
SYNTH-ONC-001,EX,SYNTH-ONC-001-0093,14,FULVESTRANT,500,mg,INTRAMUSCULAR,ONCE,2022-04-16,2022-04-16
SYNTH-ONC-001,EX,SYNTH-ONC-001-0093,15,PLACEBO,10,mg,ORAL,QD,2021-05-15,2022-05-11
SYNTH-ONC-001,EX,SYNTH-ONC-001-0094,1,FULVESTRANT,500,mg,INTRAMUSCULAR,ONCE,2021-07-14,2021-07-14
SYNTH-ONC-001,EX,SYNTH-ONC-001-0094,2,FULVESTRANT,500,mg,INTRAMUSCULAR,ONCE,2021-07-28,2021-07-28
SYNTH-ONC-001,EX,SYNTH-ONC-001-0094,3,FULVESTRANT,500,mg,INTRAMUSCULAR,ONCE,2021-08-11,2021-08-11
SYNTH-ONC-001,EX,SYNTH-ONC-001-0094,4,FULVESTRANT,500,mg,INTRAMUSCULAR,ONCE,2021-09-08,2021-09-08
SYNTH-ONC-001,EX,SYNTH-ONC-001-0094,5,FULVESTRANT,500,mg,INTRAMUSCULAR,ONCE,2021-10-06,2021-10-06
SYNTH-ONC-001,EX,SYNTH-ONC-001-0094,6,FULVESTRANT,500,mg,INTRAMUSCULAR,ONCE,2021-11-03,2021-11-03
SYNTH-ONC-001,EX,SYNTH-ONC-001-0094,7,FULVESTRANT,500,mg,INTRAMUSCULAR,ONCE,2021-12-01,2021-12-01
SYNTH-ONC-001,EX,SYNTH-ONC-001-0094,8,FULVESTRANT,500,mg,INTRAMUSCULAR,ONCE,2021-12-29,2021-12-29
SYNTH-ONC-001,EX,SYNTH-ONC-001-0094,9,FULVESTRANT,500,mg,INTRAMUSCULAR,ONCE,2022-01-26,2022-01-26
SYNTH-ONC-001,EX,SYNTH-ONC-001-0094,10,FULVESTRANT,500,mg,INTRAMUSCULAR,ONCE,2022-02-23,2022-02-23
SYNTH-ONC-001,EX,SYNTH-ONC-001-0094,11,FULVESTRANT,500,mg,INTRAMUSCULAR,ONCE,2022-03-23,2022-03-23
SYNTH-ONC-001,EX,SYNTH-ONC-001-0094,12,FULVESTRANT,500,mg,INTRAMUSCULAR,ONCE,2022-04-20,2022-04-20
SYNTH-ONC-001,EX,SYNTH-ONC-001-0094,13,FULVESTRANT,500,mg,INTRAMUSCULAR,ONCE,2022-05-18,2022-05-18
SYNTH-ONC-001,EX,SYNTH-ONC-001-0094,14,FULVESTRANT,500,mg,INTRAMUSCULAR,ONCE,2022-06-15,2022-06-15
SYNTH-ONC-001,EX,SYNTH-ONC-001-0094,15,FULVESTRANT,500,mg,INTRAMUSCULAR,ONCE,2022-07-13,2022-07-13
SYNTH-ONC-001,EX,SYNTH-ONC-001-0094,16,EVEROLIMUS,10,mg,ORAL,QD,2021-07-14,2022-07-25
SYNTH-ONC-001,EX,SYNTH-ONC-001-0095,1,FULVESTRANT,500,mg,INTRAMUSCULAR,ONCE,2022-02-05,2022-02-05
SYNTH-ONC-001,EX,SYNTH-ONC-001-0095,2,FULVESTRANT,500,mg,INTRAMUSCULAR,ONCE,2022-02-19,2022-02-19
SYNTH-ONC-001,EX,SYNTH-ONC-001-0095,3,FULVESTRANT,500,mg,INTRAMUSCULAR,ONCE,2022-03-05,2022-03-05
SYNTH-ONC-001,EX,SYNTH-ONC-001-0095,4,FULVESTRANT,500,mg,INTRAMUSCULAR,ONCE,2022-04-02,2022-04-02
SYNTH-ONC-001,EX,SYNTH-ONC-001-0095,5,FULVESTRANT,500,mg,INTRAMUSCULAR,ONCE,2022-04-30,2022-04-30
SYNTH-ONC-001,EX,SYNTH-ONC-001-0095,6,FULVESTRANT,500,mg,INTRAMUSCULAR,ONCE,2022-05-28,2022-05-28
SYNTH-ONC-001,EX,SYNTH-ONC-001-0095,7,FULVESTRANT,500,mg,INTRAMUSCULAR,ONCE,2022-06-25,2022-06-25
SYNTH-ONC-001,EX,SYNTH-ONC-001-0095,8,FULVESTRANT,500,mg,INTRAMUSCULAR,ONCE,2022-07-23,2022-07-23
SYNTH-ONC-001,EX,SYNTH-ONC-001-0095,9,FULVESTRANT,500,mg,INTRAMUSCULAR,ONCE,2022-08-20,2022-08-20
SYNTH-ONC-001,EX,SYNTH-ONC-001-0095,10,FULVESTRANT,500,mg,INTRAMUSCULAR,ONCE,2022-09-17,2022-09-17
SYNTH-ONC-001,EX,SYNTH-ONC-001-0095,11,FULVESTRANT,500,mg,INTRAMUSCULAR,ONCE,2022-10-15,2022-10-15
SYNTH-ONC-001,EX,SYNTH-ONC-001-0095,12,FULVESTRANT,500,mg,INTRAMUSCULAR,ONCE,2022-11-12,2022-11-12
SYNTH-ONC-001,EX,SYNTH-ONC-001-0095,13,FULVESTRANT,500,mg,INTRAMUSCULAR,ONCE,2022-12-10,2022-12-10
SYNTH-ONC-001,EX,SYNTH-ONC-001-0095,14,FULVESTRANT,500,mg,INTRAMUSCULAR,ONCE,2023-01-07,2023-01-07
SYNTH-ONC-001,EX,SYNTH-ONC-001-0095,15,FULVESTRANT,500,mg,INTRAMUSCULAR,ONCE,2023-02-04,2023-02-04
SYNTH-ONC-001,EX,SYNTH-ONC-001-0095,16,EVEROLIMUS,10,mg,ORAL,QD,2022-02-05,2023-02-04
SYNTH-ONC-001,EX,SYNTH-ONC-001-0096,1,FULVESTRANT,500,mg,INTRAMUSCULAR,ONCE,2022-10-02,2022-10-02
SYNTH-ONC-001,EX,SYNTH-ONC-001-0096,2,FULVESTRANT,500,mg,INTRAMUSCULAR,ONCE,2022-10-16,2022-10-16
SYNTH-ONC-001,EX,SYNTH-ONC-001-0096,3,FULVESTRANT,500,mg,INTRAMUSCULAR,ONCE,2022-10-30,2022-10-30
SYNTH-ONC-001,EX,SYNTH-ONC-001-0096,4,FULVESTRANT,500,mg,INTRAMUSCULAR,ONCE,2022-11-27,2022-11-27
SYNTH-ONC-001,EX,SYNTH-ONC-001-0096,5,FULVESTRANT,500,mg,INTRAMUSCULAR,ONCE,2022-12-25,2022-12-25
SYNTH-ONC-001,EX,SYNTH-ONC-001-0096,6,FULVESTRANT,500,mg,INTRAMUSCULAR,ONCE,2023-01-22,2023-01-22
SYNTH-ONC-001,EX,SYNTH-ONC-001-0096,7,FULVESTRANT,500,mg,INTRAMUSCULAR,ONCE,2023-02-19,2023-02-19
SYNTH-ONC-001,EX,SYNTH-ONC-001-0096,8,FULVESTRANT,500,mg,INTRAMUSCULAR,ONCE,2023-03-19,2023-03-19
SYNTH-ONC-001,EX,SYNTH-ONC-001-0096,9,FULVESTRANT,500,mg,INTRAMUSCULAR,ONCE,2023-04-16,2023-04-16
SYNTH-ONC-001,EX,SYNTH-ONC-001-0096,10,FULVESTRANT,500,mg,INTRAMUSCULAR,ONCE,2023-05-14,2023-05-14
SYNTH-ONC-001,EX,SYNTH-ONC-001-0096,11,FULVESTRANT,500,mg,INTRAMUSCULAR,ONCE,2023-06-11,2023-06-11
SYNTH-ONC-001,EX,SYNTH-ONC-001-0096,12,PLACEBO,10,mg,ORAL,QD,2022-10-02,2023-06-23
SYNTH-ONC-001,EX,SYNTH-ONC-001-0097,1,FULVESTRANT,500,mg,INTRAMUSCULAR,ONCE,2021-02-02,2021-02-02
SYNTH-ONC-001,EX,SYNTH-ONC-001-0097,2,FULVESTRANT,500,mg,INTRAMUSCULAR,ONCE,2021-02-16,2021-02-16
SYNTH-ONC-001,EX,SYNTH-ONC-001-0097,3,FULVESTRANT,500,mg,INTRAMUSCULAR,ONCE,2021-03-02,2021-03-02
SYNTH-ONC-001,EX,SYNTH-ONC-001-0097,4,FULVESTRANT,500,mg,INTRAMUSCULAR,ONCE,2021-03-30,2021-03-30
SYNTH-ONC-001,EX,SYNTH-ONC-001-0097,5,FULVESTRANT,500,mg,INTRAMUSCULAR,ONCE,2021-04-27,2021-04-27
SYNTH-ONC-001,EX,SYNTH-ONC-001-0097,6,FULVESTRANT,500,mg,INTRAMUSCULAR,ONCE,2021-05-25,2021-05-25
SYNTH-ONC-001,EX,SYNTH-ONC-001-0097,7,FULVESTRANT,500,mg,INTRAMUSCULAR,ONCE,2021-06-22,2021-06-22
SYNTH-ONC-001,EX,SYNTH-ONC-001-0097,8,FULVESTRANT,500,mg,INTRAMUSCULAR,ONCE,2021-07-20,2021-07-20
SYNTH-ONC-001,EX,SYNTH-ONC-001-0097,9,FULVESTRANT,500,mg,INTRAMUSCULAR,ONCE,2021-08-17,2021-08-17
SYNTH-ONC-001,EX,SYNTH-ONC-001-0097,10,FULVESTRANT,500,mg,INTRAMUSCULAR,ONCE,2021-09-14,2021-09-14
SYNTH-ONC-001,EX,SYNTH-ONC-001-0097,11,PLACEBO,10,mg,ORAL,QD,2021-02-02,2021-10-02
SYNTH-ONC-001,EX,SYNTH-ONC-001-0098,1,FULVESTRANT,500,mg,INTRAMUSCULAR,ONCE,2022-11-19,2022-11-19
SYNTH-ONC-001,EX,SYNTH-ONC-001-0098,2,FULVESTRANT,500,mg,INTRAMUSCULAR,ONCE,2022-12-03,2022-12-03
SYNTH-ONC-001,EX,SYNTH-ONC-001-0098,3,FULVESTRANT,500,mg,INTRAMUSCULAR,ONCE,2022-12-17,2022-12-17
SYNTH-ONC-001,EX,SYNTH-ONC-001-0098,4,FULVESTRANT,500,mg,INTRAMUSCULAR,ONCE,2023-01-14,2023-01-14
SYNTH-ONC-001,EX,SYNTH-ONC-001-0098,5,FULVESTRANT,500,mg,INTRAMUSCULAR,ONCE,2023-02-11,2023-02-11
SYNTH-ONC-001,EX,SYNTH-ONC-001-0098,6,FULVESTRANT,500,mg,INTRAMUSCULAR,ONCE,2023-03-11,2023-03-11
SYNTH-ONC-001,EX,SYNTH-ONC-001-0098,7,FULVESTRANT,500,mg,INTRAMUSCULAR,ONCE,2023-04-08,2023-04-08
SYNTH-ONC-001,EX,SYNTH-ONC-001-0098,8,FULVESTRANT,500,mg,INTRAMUSCULAR,ONCE,2023-05-06,2023-05-06
SYNTH-ONC-001,EX,SYNTH-ONC-001-0098,9,FULVESTRANT,500,mg,INTRAMUSCULAR,ONCE,2023-06-03,2023-06-03
SYNTH-ONC-001,EX,SYNTH-ONC-001-0098,10,FULVESTRANT,500,mg,INTRAMUSCULAR,ONCE,2023-07-01,2023-07-01
SYNTH-ONC-001,EX,SYNTH-ONC-001-0098,11,FULVESTRANT,500,mg,INTRAMUSCULAR,ONCE,2023-07-29,2023-07-29
SYNTH-ONC-001,EX,SYNTH-ONC-001-0098,12,FULVESTRANT,500,mg,INTRAMUSCULAR,ONCE,2023-08-26,2023-08-26
SYNTH-ONC-001,EX,SYNTH-ONC-001-0098,13,FULVESTRANT,500,mg,INTRAMUSCULAR,ONCE,2023-09-23,2023-09-23
SYNTH-ONC-001,EX,SYNTH-ONC-001-0098,14,FULVESTRANT,500,mg,INTRAMUSCULAR,ONCE,2023-10-21,2023-10-21
SYNTH-ONC-001,EX,SYNTH-ONC-001-0098,15,FULVESTRANT,500,mg,INTRAMUSCULAR,ONCE,2023-11-18,2023-11-18
SYNTH-ONC-001,EX,SYNTH-ONC-001-0098,16,FULVESTRANT,500,mg,INTRAMUSCULAR,ONCE,2023-12-16,2023-12-16
SYNTH-ONC-001,EX,SYNTH-ONC-001-0098,17,FULVESTRANT,500,mg,INTRAMUSCULAR,ONCE,2024-01-13,2024-01-13
SYNTH-ONC-001,EX,SYNTH-ONC-001-0098,18,FULVESTRANT,500,mg,INTRAMUSCULAR,ONCE,2024-02-10,2024-02-10
SYNTH-ONC-001,EX,SYNTH-ONC-001-0098,19,FULVESTRANT,500,mg,INTRAMUSCULAR,ONCE,2024-03-09,2024-03-09
SYNTH-ONC-001,EX,SYNTH-ONC-001-0098,20,FULVESTRANT,500,mg,INTRAMUSCULAR,ONCE,2024-04-06,2024-04-06
SYNTH-ONC-001,EX,SYNTH-ONC-001-0098,21,FULVESTRANT,500,mg,INTRAMUSCULAR,ONCE,2024-05-04,2024-05-04
SYNTH-ONC-001,EX,SYNTH-ONC-001-0098,22,EVEROLIMUS,10,mg,ORAL,QD,2022-11-19,2024-05-17
SYNTH-ONC-001,EX,SYNTH-ONC-001-0099,1,FULVESTRANT,500,mg,INTRAMUSCULAR,ONCE,2022-04-05,2022-04-05
SYNTH-ONC-001,EX,SYNTH-ONC-001-0099,2,FULVESTRANT,500,mg,INTRAMUSCULAR,ONCE,2022-04-19,2022-04-19
SYNTH-ONC-001,EX,SYNTH-ONC-001-0099,3,FULVESTRANT,500,mg,INTRAMUSCULAR,ONCE,2022-05-03,2022-05-03
SYNTH-ONC-001,EX,SYNTH-ONC-001-0099,4,FULVESTRANT,500,mg,INTRAMUSCULAR,ONCE,2022-05-31,2022-05-31
SYNTH-ONC-001,EX,SYNTH-ONC-001-0099,5,FULVESTRANT,500,mg,INTRAMUSCULAR,ONCE,2022-06-28,2022-06-28
SYNTH-ONC-001,EX,SYNTH-ONC-001-0099,6,FULVESTRANT,500,mg,INTRAMUSCULAR,ONCE,2022-07-26,2022-07-26
SYNTH-ONC-001,EX,SYNTH-ONC-001-0099,7,FULVESTRANT,500,mg,INTRAMUSCULAR,ONCE,2022-08-23,2022-08-23
SYNTH-ONC-001,EX,SYNTH-ONC-001-0099,8,FULVESTRANT,500,mg,INTRAMUSCULAR,ONCE,2022-09-20,2022-09-20
SYNTH-ONC-001,EX,SYNTH-ONC-001-0099,9,FULVESTRANT,500,mg,INTRAMUSCULAR,ONCE,2022-10-18,2022-10-18
SYNTH-ONC-001,EX,SYNTH-ONC-001-0099,10,FULVESTRANT,500,mg,INTRAMUSCULAR,ONCE,2022-11-15,2022-11-15
SYNTH-ONC-001,EX,SYNTH-ONC-001-0099,11,FULVESTRANT,500,mg,INTRAMUSCULAR,ONCE,2022-12-13,2022-12-13
SYNTH-ONC-001,EX,SYNTH-ONC-001-0099,12,FULVESTRANT,500,mg,INTRAMUSCULAR,ONCE,2023-01-10,2023-01-10
SYNTH-ONC-001,EX,SYNTH-ONC-001-0099,13,FULVESTRANT,500,mg,INTRAMUSCULAR,ONCE,2023-02-07,2023-02-07
SYNTH-ONC-001,EX,SYNTH-ONC-001-0099,14,FULVESTRANT,500,mg,INTRAMUSCULAR,ONCE,2023-03-07,2023-03-07
SYNTH-ONC-001,EX,SYNTH-ONC-001-0099,15,FULVESTRANT,500,mg,INTRAMUSCULAR,ONCE,2023-04-04,2023-04-04
SYNTH-ONC-001,EX,SYNTH-ONC-001-0099,16,EVEROLIMUS,10,mg,ORAL,QD,2022-04-05,2023-04-28
SYNTH-ONC-001,EX,SYNTH-ONC-001-0100,1,FULVESTRANT,500,mg,INTRAMUSCULAR,ONCE,2022-04-15,2022-04-15
SYNTH-ONC-001,EX,SYNTH-ONC-001-0100,2,FULVESTRANT,500,mg,INTRAMUSCULAR,ONCE,2022-04-29,2022-04-29
SYNTH-ONC-001,EX,SYNTH-ONC-001-0100,3,FULVESTRANT,500,mg,INTRAMUSCULAR,ONCE,2022-05-13,2022-05-13
SYNTH-ONC-001,EX,SYNTH-ONC-001-0100,4,FULVESTRANT,500,mg,INTRAMUSCULAR,ONCE,2022-06-10,2022-06-10
SYNTH-ONC-001,EX,SYNTH-ONC-001-0100,5,FULVESTRANT,500,mg,INTRAMUSCULAR,ONCE,2022-07-08,2022-07-08
SYNTH-ONC-001,EX,SYNTH-ONC-001-0100,6,FULVESTRANT,500,mg,INTRAMUSCULAR,ONCE,2022-08-05,2022-08-05
SYNTH-ONC-001,EX,SYNTH-ONC-001-0100,7,FULVESTRANT,500,mg,INTRAMUSCULAR,ONCE,2022-09-02,2022-09-02
SYNTH-ONC-001,EX,SYNTH-ONC-001-0100,8,FULVESTRANT,500,mg,INTRAMUSCULAR,ONCE,2022-09-30,2022-09-30
SYNTH-ONC-001,EX,SYNTH-ONC-001-0100,9,PLACEBO,10,mg,ORAL,QD,2022-04-15,2022-10-23
SYNTH-ONC-001,EX,SYNTH-ONC-001-0101,1,FULVESTRANT,500,mg,INTRAMUSCULAR,ONCE,2022-01-10,2022-01-10
SYNTH-ONC-001,EX,SYNTH-ONC-001-0101,2,FULVESTRANT,500,mg,INTRAMUSCULAR,ONCE,2022-01-24,2022-01-24
SYNTH-ONC-001,EX,SYNTH-ONC-001-0101,3,FULVESTRANT,500,mg,INTRAMUSCULAR,ONCE,2022-02-07,2022-02-07
SYNTH-ONC-001,EX,SYNTH-ONC-001-0101,4,FULVESTRANT,500,mg,INTRAMUSCULAR,ONCE,2022-03-07,2022-03-07
SYNTH-ONC-001,EX,SYNTH-ONC-001-0101,5,FULVESTRANT,500,mg,INTRAMUSCULAR,ONCE,2022-04-04,2022-04-04
SYNTH-ONC-001,EX,SYNTH-ONC-001-0101,6,FULVESTRANT,500,mg,INTRAMUSCULAR,ONCE,2022-05-02,2022-05-02
SYNTH-ONC-001,EX,SYNTH-ONC-001-0101,7,FULVESTRANT,500,mg,INTRAMUSCULAR,ONCE,2022-05-30,2022-05-30
SYNTH-ONC-001,EX,SYNTH-ONC-001-0101,8,FULVESTRANT,500,mg,INTRAMUSCULAR,ONCE,2022-06-27,2022-06-27
SYNTH-ONC-001,EX,SYNTH-ONC-001-0101,9,FULVESTRANT,500,mg,INTRAMUSCULAR,ONCE,2022-07-25,2022-07-25
SYNTH-ONC-001,EX,SYNTH-ONC-001-0101,10,FULVESTRANT,500,mg,INTRAMUSCULAR,ONCE,2022-08-22,2022-08-22
SYNTH-ONC-001,EX,SYNTH-ONC-001-0101,11,FULVESTRANT,500,mg,INTRAMUSCULAR,ONCE,2022-09-19,2022-09-19
SYNTH-ONC-001,EX,SYNTH-ONC-001-0101,12,FULVESTRANT,500,mg,INTRAMUSCULAR,ONCE,2022-10-17,2022-10-17
SYNTH-ONC-001,EX,SYNTH-ONC-001-0101,13,FULVESTRANT,500,mg,INTRAMUSCULAR,ONCE,2022-11-14,2022-11-14
SYNTH-ONC-001,EX,SYNTH-ONC-001-0101,14,EVEROLIMUS,10,mg,ORAL,QD,2022-01-10,2022-12-05
SYNTH-ONC-001,EX,SYNTH-ONC-001-0102,1,FULVESTRANT,500,mg,INTRAMUSCULAR,ONCE,2021-01-22,2021-01-22
SYNTH-ONC-001,EX,SYNTH-ONC-001-0102,2,FULVESTRANT,500,mg,INTRAMUSCULAR,ONCE,2021-02-05,2021-02-05
SYNTH-ONC-001,EX,SYNTH-ONC-001-0102,3,FULVESTRANT,500,mg,INTRAMUSCULAR,ONCE,2021-02-19,2021-02-19
SYNTH-ONC-001,EX,SYNTH-ONC-001-0102,4,FULVESTRANT,500,mg,INTRAMUSCULAR,ONCE,2021-03-19,2021-03-19
SYNTH-ONC-001,EX,SYNTH-ONC-001-0102,5,FULVESTRANT,500,mg,INTRAMUSCULAR,ONCE,2021-04-16,2021-04-16
SYNTH-ONC-001,EX,SYNTH-ONC-001-0102,6,FULVESTRANT,500,mg,INTRAMUSCULAR,ONCE,2021-05-14,2021-05-14
SYNTH-ONC-001,EX,SYNTH-ONC-001-0102,7,FULVESTRANT,500,mg,INTRAMUSCULAR,ONCE,2021-06-11,2021-06-11
SYNTH-ONC-001,EX,SYNTH-ONC-001-0102,8,FULVESTRANT,500,mg,INTRAMUSCULAR,ONCE,2021-07-09,2021-07-09
SYNTH-ONC-001,EX,SYNTH-ONC-001-0102,9,FULVESTRANT,500,mg,INTRAMUSCULAR,ONCE,2021-08-06,2021-08-06
SYNTH-ONC-001,EX,SYNTH-ONC-001-0102,10,FULVESTRANT,500,mg,INTRAMUSCULAR,ONCE,2021-09-03,2021-09-03
SYNTH-ONC-001,EX,SYNTH-ONC-001-0102,11,EVEROLIMUS,10,mg,ORAL,QD,2021-01-22,2021-09-17
SYNTH-ONC-001,EX,SYNTH-ONC-001-0103,1,FULVESTRANT,500,mg,INTRAMUSCULAR,ONCE,2022-11-01,2022-11-01
SYNTH-ONC-001,EX,SYNTH-ONC-001-0103,2,FULVESTRANT,500,mg,INTRAMUSCULAR,ONCE,2022-11-15,2022-11-15
SYNTH-ONC-001,EX,SYNTH-ONC-001-0103,3,FULVESTRANT,500,mg,INTRAMUSCULAR,ONCE,2022-11-29,2022-11-29
SYNTH-ONC-001,EX,SYNTH-ONC-001-0103,4,FULVESTRANT,500,mg,INTRAMUSCULAR,ONCE,2022-12-27,2022-12-27
SYNTH-ONC-001,EX,SYNTH-ONC-001-0103,5,FULVESTRANT,500,mg,INTRAMUSCULAR,ONCE,2023-01-24,2023-01-24
SYNTH-ONC-001,EX,SYNTH-ONC-001-0103,6,FULVESTRANT,500,mg,INTRAMUSCULAR,ONCE,2023-02-21,2023-02-21
SYNTH-ONC-001,EX,SYNTH-ONC-001-0103,7,FULVESTRANT,500,mg,INTRAMUSCULAR,ONCE,2023-03-21,2023-03-21
SYNTH-ONC-001,EX,SYNTH-ONC-001-0103,8,FULVESTRANT,500,mg,INTRAMUSCULAR,ONCE,2023-04-18,2023-04-18
SYNTH-ONC-001,EX,SYNTH-ONC-001-0103,9,FULVESTRANT,500,mg,INTRAMUSCULAR,ONCE,2023-05-16,2023-05-16
SYNTH-ONC-001,EX,SYNTH-ONC-001-0103,10,FULVESTRANT,500,mg,INTRAMUSCULAR,ONCE,2023-06-13,2023-06-13
SYNTH-ONC-001,EX,SYNTH-ONC-001-0103,11,FULVESTRANT,500,mg,INTRAMUSCULAR,ONCE,2023-07-11,2023-07-11
SYNTH-ONC-001,EX,SYNTH-ONC-001-0103,12,FULVESTRANT,500,mg,INTRAMUSCULAR,ONCE,2023-08-08,2023-08-08
SYNTH-ONC-001,EX,SYNTH-ONC-001-0103,13,FULVESTRANT,500,mg,INTRAMUSCULAR,ONCE,2023-09-05,2023-09-05
SYNTH-ONC-001,EX,SYNTH-ONC-001-0103,14,FULVESTRANT,500,mg,INTRAMUSCULAR,ONCE,2023-10-03,2023-10-03
SYNTH-ONC-001,EX,SYNTH-ONC-001-0103,15,FULVESTRANT,500,mg,INTRAMUSCULAR,ONCE,2023-10-31,2023-10-31
SYNTH-ONC-001,EX,SYNTH-ONC-001-0103,16,FULVESTRANT,500,mg,INTRAMUSCULAR,ONCE,2023-11-28,2023-11-28
SYNTH-ONC-001,EX,SYNTH-ONC-001-0103,17,FULVESTRANT,500,mg,INTRAMUSCULAR,ONCE,2023-12-26,2023-12-26
SYNTH-ONC-001,EX,SYNTH-ONC-001-0103,18,FULVESTRANT,500,mg,INTRAMUSCULAR,ONCE,2024-01-23,2024-01-23
SYNTH-ONC-001,EX,SYNTH-ONC-001-0103,19,FULVESTRANT,500,mg,INTRAMUSCULAR,ONCE,2024-02-20,2024-02-20
SYNTH-ONC-001,EX,SYNTH-ONC-001-0103,20,FULVESTRANT,500,mg,INTRAMUSCULAR,ONCE,2024-03-19,2024-03-19
SYNTH-ONC-001,EX,SYNTH-ONC-001-0103,21,FULVESTRANT,500,mg,INTRAMUSCULAR,ONCE,2024-04-16,2024-04-16
SYNTH-ONC-001,EX,SYNTH-ONC-001-0103,22,FULVESTRANT,500,mg,INTRAMUSCULAR,ONCE,2024-05-14,2024-05-14
SYNTH-ONC-001,EX,SYNTH-ONC-001-0103,23,PLACEBO,10,mg,ORAL,QD,2022-11-01,2024-05-18
SYNTH-ONC-001,EX,SYNTH-ONC-001-0104,1,FULVESTRANT,500,mg,INTRAMUSCULAR,ONCE,2021-02-07,2021-02-07
SYNTH-ONC-001,EX,SYNTH-ONC-001-0104,2,FULVESTRANT,500,mg,INTRAMUSCULAR,ONCE,2021-02-21,2021-02-21
SYNTH-ONC-001,EX,SYNTH-ONC-001-0104,3,FULVESTRANT,500,mg,INTRAMUSCULAR,ONCE,2021-03-07,2021-03-07
SYNTH-ONC-001,EX,SYNTH-ONC-001-0104,4,FULVESTRANT,500,mg,INTRAMUSCULAR,ONCE,2021-04-04,2021-04-04
SYNTH-ONC-001,EX,SYNTH-ONC-001-0104,5,PLACEBO,10,mg,ORAL,QD,2021-02-07,2021-04-12
SYNTH-ONC-001,EX,SYNTH-ONC-001-0105,1,FULVESTRANT,500,mg,INTRAMUSCULAR,ONCE,2021-08-18,2021-08-18
SYNTH-ONC-001,EX,SYNTH-ONC-001-0105,2,FULVESTRANT,500,mg,INTRAMUSCULAR,ONCE,2021-09-01,2021-09-01
SYNTH-ONC-001,EX,SYNTH-ONC-001-0105,3,FULVESTRANT,500,mg,INTRAMUSCULAR,ONCE,2021-09-15,2021-09-15
SYNTH-ONC-001,EX,SYNTH-ONC-001-0105,4,FULVESTRANT,500,mg,INTRAMUSCULAR,ONCE,2021-10-13,2021-10-13
SYNTH-ONC-001,EX,SYNTH-ONC-001-0105,5,FULVESTRANT,500,mg,INTRAMUSCULAR,ONCE,2021-11-10,2021-11-10
SYNTH-ONC-001,EX,SYNTH-ONC-001-0105,6,FULVESTRANT,500,mg,INTRAMUSCULAR,ONCE,2021-12-08,2021-12-08
SYNTH-ONC-001,EX,SYNTH-ONC-001-0105,7,FULVESTRANT,500,mg,INTRAMUSCULAR,ONCE,2022-01-05,2022-01-05
SYNTH-ONC-001,EX,SYNTH-ONC-001-0105,8,FULVESTRANT,500,mg,INTRAMUSCULAR,ONCE,2022-02-02,2022-02-02
SYNTH-ONC-001,EX,SYNTH-ONC-001-0105,9,PLACEBO,10,mg,ORAL,QD,2021-08-18,2022-02-15
SYNTH-ONC-001,EX,SYNTH-ONC-001-0106,1,FULVESTRANT,500,mg,INTRAMUSCULAR,ONCE,2021-12-31,2021-12-31
SYNTH-ONC-001,EX,SYNTH-ONC-001-0106,2,FULVESTRANT,500,mg,INTRAMUSCULAR,ONCE,2022-01-14,2022-01-14
SYNTH-ONC-001,EX,SYNTH-ONC-001-0106,3,FULVESTRANT,500,mg,INTRAMUSCULAR,ONCE,2022-01-28,2022-01-28
SYNTH-ONC-001,EX,SYNTH-ONC-001-0106,4,FULVESTRANT,500,mg,INTRAMUSCULAR,ONCE,2022-02-25,2022-02-25
SYNTH-ONC-001,EX,SYNTH-ONC-001-0106,5,FULVESTRANT,500,mg,INTRAMUSCULAR,ONCE,2022-03-25,2022-03-25
SYNTH-ONC-001,EX,SYNTH-ONC-001-0106,6,FULVESTRANT,500,mg,INTRAMUSCULAR,ONCE,2022-04-22,2022-04-22
SYNTH-ONC-001,EX,SYNTH-ONC-001-0106,7,FULVESTRANT,500,mg,INTRAMUSCULAR,ONCE,2022-05-20,2022-05-20
SYNTH-ONC-001,EX,SYNTH-ONC-001-0106,8,FULVESTRANT,500,mg,INTRAMUSCULAR,ONCE,2022-06-17,2022-06-17
SYNTH-ONC-001,EX,SYNTH-ONC-001-0106,9,FULVESTRANT,500,mg,INTRAMUSCULAR,ONCE,2022-07-15,2022-07-15
SYNTH-ONC-001,EX,SYNTH-ONC-001-0106,10,FULVESTRANT,500,mg,INTRAMUSCULAR,ONCE,2022-08-12,2022-08-12
SYNTH-ONC-001,EX,SYNTH-ONC-001-0106,11,FULVESTRANT,500,mg,INTRAMUSCULAR,ONCE,2022-09-09,2022-09-09
SYNTH-ONC-001,EX,SYNTH-ONC-001-0106,12,PLACEBO,10,mg,ORAL,QD,2021-12-31,2022-09-14
SYNTH-ONC-001,EX,SYNTH-ONC-001-0107,1,FULVESTRANT,500,mg,INTRAMUSCULAR,ONCE,2022-07-17,2022-07-17
SYNTH-ONC-001,EX,SYNTH-ONC-001-0107,2,FULVESTRANT,500,mg,INTRAMUSCULAR,ONCE,2022-07-31,2022-07-31
SYNTH-ONC-001,EX,SYNTH-ONC-001-0107,3,FULVESTRANT,500,mg,INTRAMUSCULAR,ONCE,2022-08-14,2022-08-14
SYNTH-ONC-001,EX,SYNTH-ONC-001-0107,4,FULVESTRANT,500,mg,INTRAMUSCULAR,ONCE,2022-09-11,2022-09-11
SYNTH-ONC-001,EX,SYNTH-ONC-001-0107,5,FULVESTRANT,500,mg,INTRAMUSCULAR,ONCE,2022-10-09,2022-10-09
SYNTH-ONC-001,EX,SYNTH-ONC-001-0107,6,FULVESTRANT,500,mg,INTRAMUSCULAR,ONCE,2022-11-06,2022-11-06
SYNTH-ONC-001,EX,SYNTH-ONC-001-0107,7,FULVESTRANT,500,mg,INTRAMUSCULAR,ONCE,2022-12-04,2022-12-04
SYNTH-ONC-001,EX,SYNTH-ONC-001-0107,8,FULVESTRANT,500,mg,INTRAMUSCULAR,ONCE,2023-01-01,2023-01-01
SYNTH-ONC-001,EX,SYNTH-ONC-001-0107,9,FULVESTRANT,500,mg,INTRAMUSCULAR,ONCE,2023-01-29,2023-01-29
SYNTH-ONC-001,EX,SYNTH-ONC-001-0107,10,FULVESTRANT,500,mg,INTRAMUSCULAR,ONCE,2023-02-26,2023-02-26
SYNTH-ONC-001,EX,SYNTH-ONC-001-0107,11,FULVESTRANT,500,mg,INTRAMUSCULAR,ONCE,2023-03-26,2023-03-26
SYNTH-ONC-001,EX,SYNTH-ONC-001-0107,12,FULVESTRANT,500,mg,INTRAMUSCULAR,ONCE,2023-04-23,2023-04-23
SYNTH-ONC-001,EX,SYNTH-ONC-001-0107,13,FULVESTRANT,500,mg,INTRAMUSCULAR,ONCE,2023-05-21,2023-05-21
SYNTH-ONC-001,EX,SYNTH-ONC-001-0107,14,EVEROLIMUS,10,mg,ORAL,QD,2022-07-17,2023-06-05
SYNTH-ONC-001,EX,SYNTH-ONC-001-0108,1,FULVESTRANT,500,mg,INTRAMUSCULAR,ONCE,2022-03-14,2022-03-14
SYNTH-ONC-001,EX,SYNTH-ONC-001-0108,2,FULVESTRANT,500,mg,INTRAMUSCULAR,ONCE,2022-03-28,2022-03-28
SYNTH-ONC-001,EX,SYNTH-ONC-001-0108,3,FULVESTRANT,500,mg,INTRAMUSCULAR,ONCE,2022-04-11,2022-04-11
SYNTH-ONC-001,EX,SYNTH-ONC-001-0108,4,FULVESTRANT,500,mg,INTRAMUSCULAR,ONCE,2022-05-09,2022-05-09
SYNTH-ONC-001,EX,SYNTH-ONC-001-0108,5,FULVESTRANT,500,mg,INTRAMUSCULAR,ONCE,2022-06-06,2022-06-06
SYNTH-ONC-001,EX,SYNTH-ONC-001-0108,6,FULVESTRANT,500,mg,INTRAMUSCULAR,ONCE,2022-07-04,2022-07-04
SYNTH-ONC-001,EX,SYNTH-ONC-001-0108,7,FULVESTRANT,500,mg,INTRAMUSCULAR,ONCE,2022-08-01,2022-08-01
SYNTH-ONC-001,EX,SYNTH-ONC-001-0108,8,FULVESTRANT,500,mg,INTRAMUSCULAR,ONCE,2022-08-29,2022-08-29
SYNTH-ONC-001,EX,SYNTH-ONC-001-0108,9,FULVESTRANT,500,mg,INTRAMUSCULAR,ONCE,2022-09-26,2022-09-26
SYNTH-ONC-001,EX,SYNTH-ONC-001-0108,10,FULVESTRANT,500,mg,INTRAMUSCULAR,ONCE,2022-10-24,2022-10-24
SYNTH-ONC-001,EX,SYNTH-ONC-001-0108,11,FULVESTRANT,500,mg,INTRAMUSCULAR,ONCE,2022-11-21,2022-11-21
SYNTH-ONC-001,EX,SYNTH-ONC-001-0108,12,FULVESTRANT,500,mg,INTRAMUSCULAR,ONCE,2022-12-19,2022-12-19
SYNTH-ONC-001,EX,SYNTH-ONC-001-0108,13,FULVESTRANT,500,mg,INTRAMUSCULAR,ONCE,2023-01-16,2023-01-16
SYNTH-ONC-001,EX,SYNTH-ONC-001-0108,14,FULVESTRANT,500,mg,INTRAMUSCULAR,ONCE,2023-02-13,2023-02-13
SYNTH-ONC-001,EX,SYNTH-ONC-001-0108,15,FULVESTRANT,500,mg,INTRAMUSCULAR,ONCE,2023-03-13,2023-03-13
SYNTH-ONC-001,EX,SYNTH-ONC-001-0108,16,FULVESTRANT,500,mg,INTRAMUSCULAR,ONCE,2023-04-10,2023-04-10
SYNTH-ONC-001,EX,SYNTH-ONC-001-0108,17,FULVESTRANT,500,mg,INTRAMUSCULAR,ONCE,2023-05-08,2023-05-08
SYNTH-ONC-001,EX,SYNTH-ONC-001-0108,18,FULVESTRANT,500,mg,INTRAMUSCULAR,ONCE,2023-06-05,2023-06-05
SYNTH-ONC-001,EX,SYNTH-ONC-001-0108,19,FULVESTRANT,500,mg,INTRAMUSCULAR,ONCE,2023-07-03,2023-07-03
SYNTH-ONC-001,EX,SYNTH-ONC-001-0108,20,FULVESTRANT,500,mg,INTRAMUSCULAR,ONCE,2023-07-31,2023-07-31
SYNTH-ONC-001,EX,SYNTH-ONC-001-0108,21,EVEROLIMUS,10,mg,ORAL,QD,2022-03-14,2023-08-15
SYNTH-ONC-001,EX,SYNTH-ONC-001-0109,1,FULVESTRANT,500,mg,INTRAMUSCULAR,ONCE,2021-10-10,2021-10-10
SYNTH-ONC-001,EX,SYNTH-ONC-001-0109,2,FULVESTRANT,500,mg,INTRAMUSCULAR,ONCE,2021-10-24,2021-10-24
SYNTH-ONC-001,EX,SYNTH-ONC-001-0109,3,FULVESTRANT,500,mg,INTRAMUSCULAR,ONCE,2021-11-07,2021-11-07
SYNTH-ONC-001,EX,SYNTH-ONC-001-0109,4,FULVESTRANT,500,mg,INTRAMUSCULAR,ONCE,2021-12-05,2021-12-05
SYNTH-ONC-001,EX,SYNTH-ONC-001-0109,5,FULVESTRANT,500,mg,INTRAMUSCULAR,ONCE,2022-01-02,2022-01-02
SYNTH-ONC-001,EX,SYNTH-ONC-001-0109,6,PLACEBO,10,mg,ORAL,QD,2021-10-10,2022-01-25
SYNTH-ONC-001,EX,SYNTH-ONC-001-0110,1,FULVESTRANT,500,mg,INTRAMUSCULAR,ONCE,2021-01-27,2021-01-27
SYNTH-ONC-001,EX,SYNTH-ONC-001-0110,2,FULVESTRANT,500,mg,INTRAMUSCULAR,ONCE,2021-02-10,2021-02-10
SYNTH-ONC-001,EX,SYNTH-ONC-001-0110,3,FULVESTRANT,500,mg,INTRAMUSCULAR,ONCE,2021-02-24,2021-02-24
SYNTH-ONC-001,EX,SYNTH-ONC-001-0110,4,FULVESTRANT,500,mg,INTRAMUSCULAR,ONCE,2021-03-24,2021-03-24
SYNTH-ONC-001,EX,SYNTH-ONC-001-0110,5,FULVESTRANT,500,mg,INTRAMUSCULAR,ONCE,2021-04-21,2021-04-21
SYNTH-ONC-001,EX,SYNTH-ONC-001-0110,6,FULVESTRANT,500,mg,INTRAMUSCULAR,ONCE,2021-05-19,2021-05-19
SYNTH-ONC-001,EX,SYNTH-ONC-001-0110,7,FULVESTRANT,500,mg,INTRAMUSCULAR,ONCE,2021-06-16,2021-06-16
SYNTH-ONC-001,EX,SYNTH-ONC-001-0110,8,FULVESTRANT,500,mg,INTRAMUSCULAR,ONCE,2021-07-14,2021-07-14
SYNTH-ONC-001,EX,SYNTH-ONC-001-0110,9,FULVESTRANT,500,mg,INTRAMUSCULAR,ONCE,2021-08-11,2021-08-11
SYNTH-ONC-001,EX,SYNTH-ONC-001-0110,10,FULVESTRANT,500,mg,INTRAMUSCULAR,ONCE,2021-09-08,2021-09-08
SYNTH-ONC-001,EX,SYNTH-ONC-001-0110,11,FULVESTRANT,500,mg,INTRAMUSCULAR,ONCE,2021-10-06,2021-10-06
SYNTH-ONC-001,EX,SYNTH-ONC-001-0110,12,FULVESTRANT,500,mg,INTRAMUSCULAR,ONCE,2021-11-03,2021-11-03
SYNTH-ONC-001,EX,SYNTH-ONC-001-0110,13,FULVESTRANT,500,mg,INTRAMUSCULAR,ONCE,2021-12-01,2021-12-01
SYNTH-ONC-001,EX,SYNTH-ONC-001-0110,14,FULVESTRANT,500,mg,INTRAMUSCULAR,ONCE,2021-12-29,2021-12-29
SYNTH-ONC-001,EX,SYNTH-ONC-001-0110,15,FULVESTRANT,500,mg,INTRAMUSCULAR,ONCE,2022-01-26,2022-01-26
SYNTH-ONC-001,EX,SYNTH-ONC-001-0110,16,FULVESTRANT,500,mg,INTRAMUSCULAR,ONCE,2022-02-23,2022-02-23
SYNTH-ONC-001,EX,SYNTH-ONC-001-0110,17,FULVESTRANT,500,mg,INTRAMUSCULAR,ONCE,2022-03-23,2022-03-23
SYNTH-ONC-001,EX,SYNTH-ONC-001-0110,18,FULVESTRANT,500,mg,INTRAMUSCULAR,ONCE,2022-04-20,2022-04-20
SYNTH-ONC-001,EX,SYNTH-ONC-001-0110,19,FULVESTRANT,500,mg,INTRAMUSCULAR,ONCE,2022-05-18,2022-05-18
SYNTH-ONC-001,EX,SYNTH-ONC-001-0110,20,PLACEBO,10,mg,ORAL,QD,2021-01-27,2022-06-06
SYNTH-ONC-001,EX,SYNTH-ONC-001-0111,1,FULVESTRANT,500,mg,INTRAMUSCULAR,ONCE,2021-08-14,2021-08-14
SYNTH-ONC-001,EX,SYNTH-ONC-001-0111,2,FULVESTRANT,500,mg,INTRAMUSCULAR,ONCE,2021-08-28,2021-08-28
SYNTH-ONC-001,EX,SYNTH-ONC-001-0111,3,FULVESTRANT,500,mg,INTRAMUSCULAR,ONCE,2021-09-11,2021-09-11
SYNTH-ONC-001,EX,SYNTH-ONC-001-0111,4,FULVESTRANT,500,mg,INTRAMUSCULAR,ONCE,2021-10-09,2021-10-09
SYNTH-ONC-001,EX,SYNTH-ONC-001-0111,5,FULVESTRANT,500,mg,INTRAMUSCULAR,ONCE,2021-11-06,2021-11-06
SYNTH-ONC-001,EX,SYNTH-ONC-001-0111,6,PLACEBO,10,mg,ORAL,QD,2021-08-14,2021-11-12
SYNTH-ONC-001,EX,SYNTH-ONC-001-0112,1,FULVESTRANT,500,mg,INTRAMUSCULAR,ONCE,2021-10-04,2021-10-04
SYNTH-ONC-001,EX,SYNTH-ONC-001-0112,2,FULVESTRANT,500,mg,INTRAMUSCULAR,ONCE,2021-10-18,2021-10-18
SYNTH-ONC-001,EX,SYNTH-ONC-001-0112,3,FULVESTRANT,500,mg,INTRAMUSCULAR,ONCE,2021-11-01,2021-11-01
SYNTH-ONC-001,EX,SYNTH-ONC-001-0112,4,FULVESTRANT,500,mg,INTRAMUSCULAR,ONCE,2021-11-29,2021-11-29
SYNTH-ONC-001,EX,SYNTH-ONC-001-0112,5,FULVESTRANT,500,mg,INTRAMUSCULAR,ONCE,2021-12-27,2021-12-27
SYNTH-ONC-001,EX,SYNTH-ONC-001-0112,6,FULVESTRANT,500,mg,INTRAMUSCULAR,ONCE,2022-01-24,2022-01-24
SYNTH-ONC-001,EX,SYNTH-ONC-001-0112,7,FULVESTRANT,500,mg,INTRAMUSCULAR,ONCE,2022-02-21,2022-02-21
SYNTH-ONC-001,EX,SYNTH-ONC-001-0112,8,FULVESTRANT,500,mg,INTRAMUSCULAR,ONCE,2022-03-21,2022-03-21
SYNTH-ONC-001,EX,SYNTH-ONC-001-0112,9,FULVESTRANT,500,mg,INTRAMUSCULAR,ONCE,2022-04-18,2022-04-18
SYNTH-ONC-001,EX,SYNTH-ONC-001-0112,10,FULVESTRANT,500,mg,INTRAMUSCULAR,ONCE,2022-05-16,2022-05-16
SYNTH-ONC-001,EX,SYNTH-ONC-001-0112,11,FULVESTRANT,500,mg,INTRAMUSCULAR,ONCE,2022-06-13,2022-06-13
SYNTH-ONC-001,EX,SYNTH-ONC-001-0112,12,FULVESTRANT,500,mg,INTRAMUSCULAR,ONCE,2022-07-11,2022-07-11
SYNTH-ONC-001,EX,SYNTH-ONC-001-0112,13,FULVESTRANT,500,mg,INTRAMUSCULAR,ONCE,2022-08-08,2022-08-08
SYNTH-ONC-001,EX,SYNTH-ONC-001-0112,14,FULVESTRANT,500,mg,INTRAMUSCULAR,ONCE,2022-09-05,2022-09-05
SYNTH-ONC-001,EX,SYNTH-ONC-001-0112,15,FULVESTRANT,500,mg,INTRAMUSCULAR,ONCE,2022-10-03,2022-10-03
SYNTH-ONC-001,EX,SYNTH-ONC-001-0112,16,FULVESTRANT,500,mg,INTRAMUSCULAR,ONCE,2022-10-31,2022-10-31
SYNTH-ONC-001,EX,SYNTH-ONC-001-0112,17,FULVESTRANT,500,mg,INTRAMUSCULAR,ONCE,2022-11-28,2022-11-28
SYNTH-ONC-001,EX,SYNTH-ONC-001-0112,18,FULVESTRANT,500,mg,INTRAMUSCULAR,ONCE,2022-12-26,2022-12-26
SYNTH-ONC-001,EX,SYNTH-ONC-001-0112,19,FULVESTRANT,500,mg,INTRAMUSCULAR,ONCE,2023-01-23,2023-01-23
SYNTH-ONC-001,EX,SYNTH-ONC-001-0112,20,FULVESTRANT,500,mg,INTRAMUSCULAR,ONCE,2023-02-20,2023-02-20
SYNTH-ONC-001,EX,SYNTH-ONC-001-0112,21,EVEROLIMUS,10,mg,ORAL,QD,2021-10-04,2023-03-02
SYNTH-ONC-001,EX,SYNTH-ONC-001-0113,1,FULVESTRANT,500,mg,INTRAMUSCULAR,ONCE,2022-09-01,2022-09-01
SYNTH-ONC-001,EX,SYNTH-ONC-001-0113,2,FULVESTRANT,500,mg,INTRAMUSCULAR,ONCE,2022-09-15,2022-09-15
SYNTH-ONC-001,EX,SYNTH-ONC-001-0113,3,FULVESTRANT,500,mg,INTRAMUSCULAR,ONCE,2022-09-29,2022-09-29
SYNTH-ONC-001,EX,SYNTH-ONC-001-0113,4,FULVESTRANT,500,mg,INTRAMUSCULAR,ONCE,2022-10-27,2022-10-27
SYNTH-ONC-001,EX,SYNTH-ONC-001-0113,5,FULVESTRANT,500,mg,INTRAMUSCULAR,ONCE,2022-11-24,2022-11-24
SYNTH-ONC-001,EX,SYNTH-ONC-001-0113,6,PLACEBO,10,mg,ORAL,QD,2022-09-01,2022-11-27
SYNTH-ONC-001,EX,SYNTH-ONC-001-0114,1,FULVESTRANT,500,mg,INTRAMUSCULAR,ONCE,2021-10-11,2021-10-11
SYNTH-ONC-001,EX,SYNTH-ONC-001-0114,2,FULVESTRANT,500,mg,INTRAMUSCULAR,ONCE,2021-10-25,2021-10-25
SYNTH-ONC-001,EX,SYNTH-ONC-001-0114,3,FULVESTRANT,500,mg,INTRAMUSCULAR,ONCE,2021-11-08,2021-11-08
SYNTH-ONC-001,EX,SYNTH-ONC-001-0114,4,FULVESTRANT,500,mg,INTRAMUSCULAR,ONCE,2021-12-06,2021-12-06
SYNTH-ONC-001,EX,SYNTH-ONC-001-0114,5,PLACEBO,10,mg,ORAL,QD,2021-10-11,2021-12-19
SYNTH-ONC-001,EX,SYNTH-ONC-001-0115,1,FULVESTRANT,500,mg,INTRAMUSCULAR,ONCE,2022-04-26,2022-04-26
SYNTH-ONC-001,EX,SYNTH-ONC-001-0115,2,FULVESTRANT,500,mg,INTRAMUSCULAR,ONCE,2022-05-10,2022-05-10
SYNTH-ONC-001,EX,SYNTH-ONC-001-0115,3,FULVESTRANT,500,mg,INTRAMUSCULAR,ONCE,2022-05-24,2022-05-24
SYNTH-ONC-001,EX,SYNTH-ONC-001-0115,4,FULVESTRANT,500,mg,INTRAMUSCULAR,ONCE,2022-06-21,2022-06-21
SYNTH-ONC-001,EX,SYNTH-ONC-001-0115,5,FULVESTRANT,500,mg,INTRAMUSCULAR,ONCE,2022-07-19,2022-07-19
SYNTH-ONC-001,EX,SYNTH-ONC-001-0115,6,FULVESTRANT,500,mg,INTRAMUSCULAR,ONCE,2022-08-16,2022-08-16
SYNTH-ONC-001,EX,SYNTH-ONC-001-0115,7,FULVESTRANT,500,mg,INTRAMUSCULAR,ONCE,2022-09-13,2022-09-13
SYNTH-ONC-001,EX,SYNTH-ONC-001-0115,8,FULVESTRANT,500,mg,INTRAMUSCULAR,ONCE,2022-10-11,2022-10-11
SYNTH-ONC-001,EX,SYNTH-ONC-001-0115,9,FULVESTRANT,500,mg,INTRAMUSCULAR,ONCE,2022-11-08,2022-11-08
SYNTH-ONC-001,EX,SYNTH-ONC-001-0115,10,FULVESTRANT,500,mg,INTRAMUSCULAR,ONCE,2022-12-06,2022-12-06
SYNTH-ONC-001,EX,SYNTH-ONC-001-0115,11,FULVESTRANT,500,mg,INTRAMUSCULAR,ONCE,2023-01-03,2023-01-03
SYNTH-ONC-001,EX,SYNTH-ONC-001-0115,12,FULVESTRANT,500,mg,INTRAMUSCULAR,ONCE,2023-01-31,2023-01-31
SYNTH-ONC-001,EX,SYNTH-ONC-001-0115,13,FULVESTRANT,500,mg,INTRAMUSCULAR,ONCE,2023-02-28,2023-02-28
SYNTH-ONC-001,EX,SYNTH-ONC-001-0115,14,FULVESTRANT,500,mg,INTRAMUSCULAR,ONCE,2023-03-28,2023-03-28
SYNTH-ONC-001,EX,SYNTH-ONC-001-0115,15,FULVESTRANT,500,mg,INTRAMUSCULAR,ONCE,2023-04-25,2023-04-25
SYNTH-ONC-001,EX,SYNTH-ONC-001-0115,16,FULVESTRANT,500,mg,INTRAMUSCULAR,ONCE,2023-05-23,2023-05-23
SYNTH-ONC-001,EX,SYNTH-ONC-001-0115,17,FULVESTRANT,500,mg,INTRAMUSCULAR,ONCE,2023-06-20,2023-06-20
SYNTH-ONC-001,EX,SYNTH-ONC-001-0115,18,EVEROLIMUS,10,mg,ORAL,QD,2022-04-26,2023-07-06
SYNTH-ONC-001,EX,SYNTH-ONC-001-0116,1,FULVESTRANT,500,mg,INTRAMUSCULAR,ONCE,2022-03-29,2022-03-29
SYNTH-ONC-001,EX,SYNTH-ONC-001-0116,2,FULVESTRANT,500,mg,INTRAMUSCULAR,ONCE,2022-04-12,2022-04-12
SYNTH-ONC-001,EX,SYNTH-ONC-001-0116,3,FULVESTRANT,500,mg,INTRAMUSCULAR,ONCE,2022-04-26,2022-04-26
SYNTH-ONC-001,EX,SYNTH-ONC-001-0116,4,FULVESTRANT,500,mg,INTRAMUSCULAR,ONCE,2022-05-24,2022-05-24
SYNTH-ONC-001,EX,SYNTH-ONC-001-0116,5,FULVESTRANT,500,mg,INTRAMUSCULAR,ONCE,2022-06-21,2022-06-21
SYNTH-ONC-001,EX,SYNTH-ONC-001-0116,6,FULVESTRANT,500,mg,INTRAMUSCULAR,ONCE,2022-07-19,2022-07-19
SYNTH-ONC-001,EX,SYNTH-ONC-001-0116,7,FULVESTRANT,500,mg,INTRAMUSCULAR,ONCE,2022-08-16,2022-08-16
SYNTH-ONC-001,EX,SYNTH-ONC-001-0116,8,FULVESTRANT,500,mg,INTRAMUSCULAR,ONCE,2022-09-13,2022-09-13
SYNTH-ONC-001,EX,SYNTH-ONC-001-0116,9,FULVESTRANT,500,mg,INTRAMUSCULAR,ONCE,2022-10-11,2022-10-11
SYNTH-ONC-001,EX,SYNTH-ONC-001-0116,10,FULVESTRANT,500,mg,INTRAMUSCULAR,ONCE,2022-11-08,2022-11-08
SYNTH-ONC-001,EX,SYNTH-ONC-001-0116,11,FULVESTRANT,500,mg,INTRAMUSCULAR,ONCE,2022-12-06,2022-12-06
SYNTH-ONC-001,EX,SYNTH-ONC-001-0116,12,FULVESTRANT,500,mg,INTRAMUSCULAR,ONCE,2023-01-03,2023-01-03
SYNTH-ONC-001,EX,SYNTH-ONC-001-0116,13,FULVESTRANT,500,mg,INTRAMUSCULAR,ONCE,2023-01-31,2023-01-31
SYNTH-ONC-001,EX,SYNTH-ONC-001-0116,14,FULVESTRANT,500,mg,INTRAMUSCULAR,ONCE,2023-02-28,2023-02-28
SYNTH-ONC-001,EX,SYNTH-ONC-001-0116,15,FULVESTRANT,500,mg,INTRAMUSCULAR,ONCE,2023-03-28,2023-03-28
SYNTH-ONC-001,EX,SYNTH-ONC-001-0116,16,FULVESTRANT,500,mg,INTRAMUSCULAR,ONCE,2023-04-25,2023-04-25
SYNTH-ONC-001,EX,SYNTH-ONC-001-0116,17,FULVESTRANT,500,mg,INTRAMUSCULAR,ONCE,2023-05-23,2023-05-23
SYNTH-ONC-001,EX,SYNTH-ONC-001-0116,18,FULVESTRANT,500,mg,INTRAMUSCULAR,ONCE,2023-06-20,2023-06-20
SYNTH-ONC-001,EX,SYNTH-ONC-001-0116,19,FULVESTRANT,500,mg,INTRAMUSCULAR,ONCE,2023-07-18,2023-07-18
SYNTH-ONC-001,EX,SYNTH-ONC-001-0116,20,FULVESTRANT,500,mg,INTRAMUSCULAR,ONCE,2023-08-15,2023-08-15
SYNTH-ONC-001,EX,SYNTH-ONC-001-0116,21,FULVESTRANT,500,mg,INTRAMUSCULAR,ONCE,2023-09-12,2023-09-12
SYNTH-ONC-001,EX,SYNTH-ONC-001-0116,22,FULVESTRANT,500,mg,INTRAMUSCULAR,ONCE,2023-10-10,2023-10-10
SYNTH-ONC-001,EX,SYNTH-ONC-001-0116,23,FULVESTRANT,500,mg,INTRAMUSCULAR,ONCE,2023-11-07,2023-11-07
SYNTH-ONC-001,EX,SYNTH-ONC-001-0116,24,PLACEBO,10,mg,ORAL,QD,2022-03-29,2023-11-17
SYNTH-ONC-001,EX,SYNTH-ONC-001-0117,1,FULVESTRANT,500,mg,INTRAMUSCULAR,ONCE,2022-10-21,2022-10-21
SYNTH-ONC-001,EX,SYNTH-ONC-001-0117,2,FULVESTRANT,500,mg,INTRAMUSCULAR,ONCE,2022-11-04,2022-11-04
SYNTH-ONC-001,EX,SYNTH-ONC-001-0117,3,FULVESTRANT,500,mg,INTRAMUSCULAR,ONCE,2022-11-18,2022-11-18
SYNTH-ONC-001,EX,SYNTH-ONC-001-0117,4,FULVESTRANT,500,mg,INTRAMUSCULAR,ONCE,2022-12-16,2022-12-16
SYNTH-ONC-001,EX,SYNTH-ONC-001-0117,5,FULVESTRANT,500,mg,INTRAMUSCULAR,ONCE,2023-01-13,2023-01-13
SYNTH-ONC-001,EX,SYNTH-ONC-001-0117,6,FULVESTRANT,500,mg,INTRAMUSCULAR,ONCE,2023-02-10,2023-02-10
SYNTH-ONC-001,EX,SYNTH-ONC-001-0117,7,FULVESTRANT,500,mg,INTRAMUSCULAR,ONCE,2023-03-10,2023-03-10
SYNTH-ONC-001,EX,SYNTH-ONC-001-0117,8,FULVESTRANT,500,mg,INTRAMUSCULAR,ONCE,2023-04-07,2023-04-07
SYNTH-ONC-001,EX,SYNTH-ONC-001-0117,9,FULVESTRANT,500,mg,INTRAMUSCULAR,ONCE,2023-05-05,2023-05-05
SYNTH-ONC-001,EX,SYNTH-ONC-001-0117,10,FULVESTRANT,500,mg,INTRAMUSCULAR,ONCE,2023-06-02,2023-06-02
SYNTH-ONC-001,EX,SYNTH-ONC-001-0117,11,FULVESTRANT,500,mg,INTRAMUSCULAR,ONCE,2023-06-30,2023-06-30
SYNTH-ONC-001,EX,SYNTH-ONC-001-0117,12,FULVESTRANT,500,mg,INTRAMUSCULAR,ONCE,2023-07-28,2023-07-28
SYNTH-ONC-001,EX,SYNTH-ONC-001-0117,13,FULVESTRANT,500,mg,INTRAMUSCULAR,ONCE,2023-08-25,2023-08-25
SYNTH-ONC-001,EX,SYNTH-ONC-001-0117,14,FULVESTRANT,500,mg,INTRAMUSCULAR,ONCE,2023-09-22,2023-09-22
SYNTH-ONC-001,EX,SYNTH-ONC-001-0117,15,FULVESTRANT,500,mg,INTRAMUSCULAR,ONCE,2023-10-20,2023-10-20
SYNTH-ONC-001,EX,SYNTH-ONC-001-0117,16,FULVESTRANT,500,mg,INTRAMUSCULAR,ONCE,2023-11-17,2023-11-17
SYNTH-ONC-001,EX,SYNTH-ONC-001-0117,17,FULVESTRANT,500,mg,INTRAMUSCULAR,ONCE,2023-12-15,2023-12-15
SYNTH-ONC-001,EX,SYNTH-ONC-001-0117,18,FULVESTRANT,500,mg,INTRAMUSCULAR,ONCE,2024-01-12,2024-01-12
SYNTH-ONC-001,EX,SYNTH-ONC-001-0117,19,FULVESTRANT,500,mg,INTRAMUSCULAR,ONCE,2024-02-09,2024-02-09
SYNTH-ONC-001,EX,SYNTH-ONC-001-0117,20,FULVESTRANT,500,mg,INTRAMUSCULAR,ONCE,2024-03-08,2024-03-08
SYNTH-ONC-001,EX,SYNTH-ONC-001-0117,21,FULVESTRANT,500,mg,INTRAMUSCULAR,ONCE,2024-04-05,2024-04-05
SYNTH-ONC-001,EX,SYNTH-ONC-001-0117,22,EVEROLIMUS,10,mg,ORAL,QD,2022-10-21,2024-04-17
SYNTH-ONC-001,EX,SYNTH-ONC-001-0118,1,FULVESTRANT,500,mg,INTRAMUSCULAR,ONCE,2022-05-31,2022-05-31
SYNTH-ONC-001,EX,SYNTH-ONC-001-0118,2,FULVESTRANT,500,mg,INTRAMUSCULAR,ONCE,2022-06-14,2022-06-14
SYNTH-ONC-001,EX,SYNTH-ONC-001-0118,3,FULVESTRANT,500,mg,INTRAMUSCULAR,ONCE,2022-06-28,2022-06-28
SYNTH-ONC-001,EX,SYNTH-ONC-001-0118,4,FULVESTRANT,500,mg,INTRAMUSCULAR,ONCE,2022-07-26,2022-07-26
SYNTH-ONC-001,EX,SYNTH-ONC-001-0118,5,FULVESTRANT,500,mg,INTRAMUSCULAR,ONCE,2022-08-23,2022-08-23
SYNTH-ONC-001,EX,SYNTH-ONC-001-0118,6,FULVESTRANT,500,mg,INTRAMUSCULAR,ONCE,2022-09-20,2022-09-20
SYNTH-ONC-001,EX,SYNTH-ONC-001-0118,7,FULVESTRANT,500,mg,INTRAMUSCULAR,ONCE,2022-10-18,2022-10-18
SYNTH-ONC-001,EX,SYNTH-ONC-001-0118,8,FULVESTRANT,500,mg,INTRAMUSCULAR,ONCE,2022-11-15,2022-11-15
SYNTH-ONC-001,EX,SYNTH-ONC-001-0118,9,FULVESTRANT,500,mg,INTRAMUSCULAR,ONCE,2022-12-13,2022-12-13
SYNTH-ONC-001,EX,SYNTH-ONC-001-0118,10,FULVESTRANT,500,mg,INTRAMUSCULAR,ONCE,2023-01-10,2023-01-10
SYNTH-ONC-001,EX,SYNTH-ONC-001-0118,11,FULVESTRANT,500,mg,INTRAMUSCULAR,ONCE,2023-02-07,2023-02-07
SYNTH-ONC-001,EX,SYNTH-ONC-001-0118,12,FULVESTRANT,500,mg,INTRAMUSCULAR,ONCE,2023-03-07,2023-03-07
SYNTH-ONC-001,EX,SYNTH-ONC-001-0118,13,FULVESTRANT,500,mg,INTRAMUSCULAR,ONCE,2023-04-04,2023-04-04
SYNTH-ONC-001,EX,SYNTH-ONC-001-0118,14,FULVESTRANT,500,mg,INTRAMUSCULAR,ONCE,2023-05-02,2023-05-02
SYNTH-ONC-001,EX,SYNTH-ONC-001-0118,15,FULVESTRANT,500,mg,INTRAMUSCULAR,ONCE,2023-05-30,2023-05-30
SYNTH-ONC-001,EX,SYNTH-ONC-001-0118,16,EVEROLIMUS,10,mg,ORAL,QD,2022-05-31,2023-06-06
SYNTH-ONC-001,EX,SYNTH-ONC-001-0119,1,FULVESTRANT,500,mg,INTRAMUSCULAR,ONCE,2022-07-01,2022-07-01
SYNTH-ONC-001,EX,SYNTH-ONC-001-0119,2,FULVESTRANT,500,mg,INTRAMUSCULAR,ONCE,2022-07-15,2022-07-15
SYNTH-ONC-001,EX,SYNTH-ONC-001-0119,3,FULVESTRANT,500,mg,INTRAMUSCULAR,ONCE,2022-07-29,2022-07-29
SYNTH-ONC-001,EX,SYNTH-ONC-001-0119,4,FULVESTRANT,500,mg,INTRAMUSCULAR,ONCE,2022-08-26,2022-08-26
SYNTH-ONC-001,EX,SYNTH-ONC-001-0119,5,FULVESTRANT,500,mg,INTRAMUSCULAR,ONCE,2022-09-23,2022-09-23
SYNTH-ONC-001,EX,SYNTH-ONC-001-0119,6,FULVESTRANT,500,mg,INTRAMUSCULAR,ONCE,2022-10-21,2022-10-21
SYNTH-ONC-001,EX,SYNTH-ONC-001-0119,7,FULVESTRANT,500,mg,INTRAMUSCULAR,ONCE,2022-11-18,2022-11-18
SYNTH-ONC-001,EX,SYNTH-ONC-001-0119,8,FULVESTRANT,500,mg,INTRAMUSCULAR,ONCE,2022-12-16,2022-12-16
SYNTH-ONC-001,EX,SYNTH-ONC-001-0119,9,FULVESTRANT,500,mg,INTRAMUSCULAR,ONCE,2023-01-13,2023-01-13
SYNTH-ONC-001,EX,SYNTH-ONC-001-0119,10,FULVESTRANT,500,mg,INTRAMUSCULAR,ONCE,2023-02-10,2023-02-10
SYNTH-ONC-001,EX,SYNTH-ONC-001-0119,11,FULVESTRANT,500,mg,INTRAMUSCULAR,ONCE,2023-03-10,2023-03-10
SYNTH-ONC-001,EX,SYNTH-ONC-001-0119,12,FULVESTRANT,500,mg,INTRAMUSCULAR,ONCE,2023-04-07,2023-04-07
SYNTH-ONC-001,EX,SYNTH-ONC-001-0119,13,FULVESTRANT,500,mg,INTRAMUSCULAR,ONCE,2023-05-05,2023-05-05
SYNTH-ONC-001,EX,SYNTH-ONC-001-0119,14,FULVESTRANT,500,mg,INTRAMUSCULAR,ONCE,2023-06-02,2023-06-02
SYNTH-ONC-001,EX,SYNTH-ONC-001-0119,15,FULVESTRANT,500,mg,INTRAMUSCULAR,ONCE,2023-06-30,2023-06-30
SYNTH-ONC-001,EX,SYNTH-ONC-001-0119,16,FULVESTRANT,500,mg,INTRAMUSCULAR,ONCE,2023-07-28,2023-07-28
SYNTH-ONC-001,EX,SYNTH-ONC-001-0119,17,FULVESTRANT,500,mg,INTRAMUSCULAR,ONCE,2023-08-25,2023-08-25
SYNTH-ONC-001,EX,SYNTH-ONC-001-0119,18,FULVESTRANT,500,mg,INTRAMUSCULAR,ONCE,2023-09-22,2023-09-22
SYNTH-ONC-001,EX,SYNTH-ONC-001-0119,19,FULVESTRANT,500,mg,INTRAMUSCULAR,ONCE,2023-10-20,2023-10-20
SYNTH-ONC-001,EX,SYNTH-ONC-001-0119,20,FULVESTRANT,500,mg,INTRAMUSCULAR,ONCE,2023-11-17,2023-11-17
SYNTH-ONC-001,EX,SYNTH-ONC-001-0119,21,FULVESTRANT,500,mg,INTRAMUSCULAR,ONCE,2023-12-15,2023-12-15
SYNTH-ONC-001,EX,SYNTH-ONC-001-0119,22,PLACEBO,10,mg,ORAL,QD,2022-07-01,2024-01-07
SYNTH-ONC-001,EX,SYNTH-ONC-001-0120,1,FULVESTRANT,500,mg,INTRAMUSCULAR,ONCE,2021-07-11,2021-07-11
SYNTH-ONC-001,EX,SYNTH-ONC-001-0120,2,FULVESTRANT,500,mg,INTRAMUSCULAR,ONCE,2021-07-25,2021-07-25
SYNTH-ONC-001,EX,SYNTH-ONC-001-0120,3,FULVESTRANT,500,mg,INTRAMUSCULAR,ONCE,2021-08-08,2021-08-08
SYNTH-ONC-001,EX,SYNTH-ONC-001-0120,4,FULVESTRANT,500,mg,INTRAMUSCULAR,ONCE,2021-09-05,2021-09-05
SYNTH-ONC-001,EX,SYNTH-ONC-001-0120,5,EVEROLIMUS,10,mg,ORAL,QD,2021-07-11,2021-09-11
SYNTH-ONC-001,EX,SYNTH-ONC-001-0121,1,FULVESTRANT,500,mg,INTRAMUSCULAR,ONCE,2021-02-18,2021-02-18
SYNTH-ONC-001,EX,SYNTH-ONC-001-0121,2,FULVESTRANT,500,mg,INTRAMUSCULAR,ONCE,2021-03-04,2021-03-04
SYNTH-ONC-001,EX,SYNTH-ONC-001-0121,3,FULVESTRANT,500,mg,INTRAMUSCULAR,ONCE,2021-03-18,2021-03-18
SYNTH-ONC-001,EX,SYNTH-ONC-001-0121,4,FULVESTRANT,500,mg,INTRAMUSCULAR,ONCE,2021-04-15,2021-04-15
SYNTH-ONC-001,EX,SYNTH-ONC-001-0121,5,FULVESTRANT,500,mg,INTRAMUSCULAR,ONCE,2021-05-13,2021-05-13
SYNTH-ONC-001,EX,SYNTH-ONC-001-0121,6,FULVESTRANT,500,mg,INTRAMUSCULAR,ONCE,2021-06-10,2021-06-10
SYNTH-ONC-001,EX,SYNTH-ONC-001-0121,7,FULVESTRANT,500,mg,INTRAMUSCULAR,ONCE,2021-07-08,2021-07-08
SYNTH-ONC-001,EX,SYNTH-ONC-001-0121,8,FULVESTRANT,500,mg,INTRAMUSCULAR,ONCE,2021-08-05,2021-08-05
SYNTH-ONC-001,EX,SYNTH-ONC-001-0121,9,FULVESTRANT,500,mg,INTRAMUSCULAR,ONCE,2021-09-02,2021-09-02
SYNTH-ONC-001,EX,SYNTH-ONC-001-0121,10,FULVESTRANT,500,mg,INTRAMUSCULAR,ONCE,2021-09-30,2021-09-30
SYNTH-ONC-001,EX,SYNTH-ONC-001-0121,11,FULVESTRANT,500,mg,INTRAMUSCULAR,ONCE,2021-10-28,2021-10-28
SYNTH-ONC-001,EX,SYNTH-ONC-001-0121,12,FULVESTRANT,500,mg,INTRAMUSCULAR,ONCE,2021-11-25,2021-11-25
SYNTH-ONC-001,EX,SYNTH-ONC-001-0121,13,FULVESTRANT,500,mg,INTRAMUSCULAR,ONCE,2021-12-23,2021-12-23
SYNTH-ONC-001,EX,SYNTH-ONC-001-0121,14,FULVESTRANT,500,mg,INTRAMUSCULAR,ONCE,2022-01-20,2022-01-20
SYNTH-ONC-001,EX,SYNTH-ONC-001-0121,15,FULVESTRANT,500,mg,INTRAMUSCULAR,ONCE,2022-02-17,2022-02-17
SYNTH-ONC-001,EX,SYNTH-ONC-001-0121,16,FULVESTRANT,500,mg,INTRAMUSCULAR,ONCE,2022-03-17,2022-03-17
SYNTH-ONC-001,EX,SYNTH-ONC-001-0121,17,FULVESTRANT,500,mg,INTRAMUSCULAR,ONCE,2022-04-14,2022-04-14
SYNTH-ONC-001,EX,SYNTH-ONC-001-0121,18,FULVESTRANT,500,mg,INTRAMUSCULAR,ONCE,2022-05-12,2022-05-12
SYNTH-ONC-001,EX,SYNTH-ONC-001-0121,19,FULVESTRANT,500,mg,INTRAMUSCULAR,ONCE,2022-06-09,2022-06-09
SYNTH-ONC-001,EX,SYNTH-ONC-001-0121,20,FULVESTRANT,500,mg,INTRAMUSCULAR,ONCE,2022-07-07,2022-07-07
SYNTH-ONC-001,EX,SYNTH-ONC-001-0121,21,FULVESTRANT,500,mg,INTRAMUSCULAR,ONCE,2022-08-04,2022-08-04
SYNTH-ONC-001,EX,SYNTH-ONC-001-0121,22,FULVESTRANT,500,mg,INTRAMUSCULAR,ONCE,2022-09-01,2022-09-01
SYNTH-ONC-001,EX,SYNTH-ONC-001-0121,23,EVEROLIMUS,10,mg,ORAL,QD,2021-02-18,2022-09-27
SYNTH-ONC-001,EX,SYNTH-ONC-001-0122,1,FULVESTRANT,500,mg,INTRAMUSCULAR,ONCE,2022-05-27,2022-05-27
SYNTH-ONC-001,EX,SYNTH-ONC-001-0122,2,FULVESTRANT,500,mg,INTRAMUSCULAR,ONCE,2022-06-10,2022-06-10
SYNTH-ONC-001,EX,SYNTH-ONC-001-0122,3,FULVESTRANT,500,mg,INTRAMUSCULAR,ONCE,2022-06-24,2022-06-24
SYNTH-ONC-001,EX,SYNTH-ONC-001-0122,4,FULVESTRANT,500,mg,INTRAMUSCULAR,ONCE,2022-07-22,2022-07-22
SYNTH-ONC-001,EX,SYNTH-ONC-001-0122,5,FULVESTRANT,500,mg,INTRAMUSCULAR,ONCE,2022-08-19,2022-08-19
SYNTH-ONC-001,EX,SYNTH-ONC-001-0122,6,FULVESTRANT,500,mg,INTRAMUSCULAR,ONCE,2022-09-16,2022-09-16
SYNTH-ONC-001,EX,SYNTH-ONC-001-0122,7,FULVESTRANT,500,mg,INTRAMUSCULAR,ONCE,2022-10-14,2022-10-14
SYNTH-ONC-001,EX,SYNTH-ONC-001-0122,8,FULVESTRANT,500,mg,INTRAMUSCULAR,ONCE,2022-11-11,2022-11-11
SYNTH-ONC-001,EX,SYNTH-ONC-001-0122,9,FULVESTRANT,500,mg,INTRAMUSCULAR,ONCE,2022-12-09,2022-12-09
SYNTH-ONC-001,EX,SYNTH-ONC-001-0122,10,FULVESTRANT,500,mg,INTRAMUSCULAR,ONCE,2023-01-06,2023-01-06
SYNTH-ONC-001,EX,SYNTH-ONC-001-0122,11,FULVESTRANT,500,mg,INTRAMUSCULAR,ONCE,2023-02-03,2023-02-03
SYNTH-ONC-001,EX,SYNTH-ONC-001-0122,12,FULVESTRANT,500,mg,INTRAMUSCULAR,ONCE,2023-03-03,2023-03-03
SYNTH-ONC-001,EX,SYNTH-ONC-001-0122,13,FULVESTRANT,500,mg,INTRAMUSCULAR,ONCE,2023-03-31,2023-03-31
SYNTH-ONC-001,EX,SYNTH-ONC-001-0122,14,PLACEBO,10,mg,ORAL,QD,2022-05-27,2023-04-17
SYNTH-ONC-001,EX,SYNTH-ONC-001-0123,1,FULVESTRANT,500,mg,INTRAMUSCULAR,ONCE,2021-01-17,2021-01-17
SYNTH-ONC-001,EX,SYNTH-ONC-001-0123,2,FULVESTRANT,500,mg,INTRAMUSCULAR,ONCE,2021-01-31,2021-01-31
SYNTH-ONC-001,EX,SYNTH-ONC-001-0123,3,FULVESTRANT,500,mg,INTRAMUSCULAR,ONCE,2021-02-14,2021-02-14
SYNTH-ONC-001,EX,SYNTH-ONC-001-0123,4,FULVESTRANT,500,mg,INTRAMUSCULAR,ONCE,2021-03-14,2021-03-14
SYNTH-ONC-001,EX,SYNTH-ONC-001-0123,5,FULVESTRANT,500,mg,INTRAMUSCULAR,ONCE,2021-04-11,2021-04-11
SYNTH-ONC-001,EX,SYNTH-ONC-001-0123,6,FULVESTRANT,500,mg,INTRAMUSCULAR,ONCE,2021-05-09,2021-05-09
SYNTH-ONC-001,EX,SYNTH-ONC-001-0123,7,FULVESTRANT,500,mg,INTRAMUSCULAR,ONCE,2021-06-06,2021-06-06
SYNTH-ONC-001,EX,SYNTH-ONC-001-0123,8,FULVESTRANT,500,mg,INTRAMUSCULAR,ONCE,2021-07-04,2021-07-04
SYNTH-ONC-001,EX,SYNTH-ONC-001-0123,9,FULVESTRANT,500,mg,INTRAMUSCULAR,ONCE,2021-08-01,2021-08-01
SYNTH-ONC-001,EX,SYNTH-ONC-001-0123,10,FULVESTRANT,500,mg,INTRAMUSCULAR,ONCE,2021-08-29,2021-08-29
SYNTH-ONC-001,EX,SYNTH-ONC-001-0123,11,FULVESTRANT,500,mg,INTRAMUSCULAR,ONCE,2021-09-26,2021-09-26
SYNTH-ONC-001,EX,SYNTH-ONC-001-0123,12,FULVESTRANT,500,mg,INTRAMUSCULAR,ONCE,2021-10-24,2021-10-24
SYNTH-ONC-001,EX,SYNTH-ONC-001-0123,13,FULVESTRANT,500,mg,INTRAMUSCULAR,ONCE,2021-11-21,2021-11-21
SYNTH-ONC-001,EX,SYNTH-ONC-001-0123,14,FULVESTRANT,500,mg,INTRAMUSCULAR,ONCE,2021-12-19,2021-12-19
SYNTH-ONC-001,EX,SYNTH-ONC-001-0123,15,FULVESTRANT,500,mg,INTRAMUSCULAR,ONCE,2022-01-16,2022-01-16
SYNTH-ONC-001,EX,SYNTH-ONC-001-0123,16,FULVESTRANT,500,mg,INTRAMUSCULAR,ONCE,2022-02-13,2022-02-13
SYNTH-ONC-001,EX,SYNTH-ONC-001-0123,17,FULVESTRANT,500,mg,INTRAMUSCULAR,ONCE,2022-03-13,2022-03-13
SYNTH-ONC-001,EX,SYNTH-ONC-001-0123,18,FULVESTRANT,500,mg,INTRAMUSCULAR,ONCE,2022-04-10,2022-04-10
SYNTH-ONC-001,EX,SYNTH-ONC-001-0123,19,PLACEBO,10,mg,ORAL,QD,2021-01-17,2022-04-12
SYNTH-ONC-001,EX,SYNTH-ONC-001-0124,1,FULVESTRANT,500,mg,INTRAMUSCULAR,ONCE,2021-06-21,2021-06-21
SYNTH-ONC-001,EX,SYNTH-ONC-001-0124,2,FULVESTRANT,500,mg,INTRAMUSCULAR,ONCE,2021-07-05,2021-07-05
SYNTH-ONC-001,EX,SYNTH-ONC-001-0124,3,FULVESTRANT,500,mg,INTRAMUSCULAR,ONCE,2021-07-19,2021-07-19
SYNTH-ONC-001,EX,SYNTH-ONC-001-0124,4,FULVESTRANT,500,mg,INTRAMUSCULAR,ONCE,2021-08-16,2021-08-16
SYNTH-ONC-001,EX,SYNTH-ONC-001-0124,5,FULVESTRANT,500,mg,INTRAMUSCULAR,ONCE,2021-09-13,2021-09-13
SYNTH-ONC-001,EX,SYNTH-ONC-001-0124,6,FULVESTRANT,500,mg,INTRAMUSCULAR,ONCE,2021-10-11,2021-10-11
SYNTH-ONC-001,EX,SYNTH-ONC-001-0124,7,FULVESTRANT,500,mg,INTRAMUSCULAR,ONCE,2021-11-08,2021-11-08
SYNTH-ONC-001,EX,SYNTH-ONC-001-0124,8,FULVESTRANT,500,mg,INTRAMUSCULAR,ONCE,2021-12-06,2021-12-06
SYNTH-ONC-001,EX,SYNTH-ONC-001-0124,9,FULVESTRANT,500,mg,INTRAMUSCULAR,ONCE,2022-01-03,2022-01-03
SYNTH-ONC-001,EX,SYNTH-ONC-001-0124,10,FULVESTRANT,500,mg,INTRAMUSCULAR,ONCE,2022-01-31,2022-01-31
SYNTH-ONC-001,EX,SYNTH-ONC-001-0124,11,FULVESTRANT,500,mg,INTRAMUSCULAR,ONCE,2022-02-28,2022-02-28
SYNTH-ONC-001,EX,SYNTH-ONC-001-0124,12,FULVESTRANT,500,mg,INTRAMUSCULAR,ONCE,2022-03-28,2022-03-28
SYNTH-ONC-001,EX,SYNTH-ONC-001-0124,13,FULVESTRANT,500,mg,INTRAMUSCULAR,ONCE,2022-04-25,2022-04-25
SYNTH-ONC-001,EX,SYNTH-ONC-001-0124,14,FULVESTRANT,500,mg,INTRAMUSCULAR,ONCE,2022-05-23,2022-05-23
SYNTH-ONC-001,EX,SYNTH-ONC-001-0124,15,FULVESTRANT,500,mg,INTRAMUSCULAR,ONCE,2022-06-20,2022-06-20
SYNTH-ONC-001,EX,SYNTH-ONC-001-0124,16,FULVESTRANT,500,mg,INTRAMUSCULAR,ONCE,2022-07-18,2022-07-18
SYNTH-ONC-001,EX,SYNTH-ONC-001-0124,17,FULVESTRANT,500,mg,INTRAMUSCULAR,ONCE,2022-08-15,2022-08-15
SYNTH-ONC-001,EX,SYNTH-ONC-001-0124,18,FULVESTRANT,500,mg,INTRAMUSCULAR,ONCE,2022-09-12,2022-09-12
SYNTH-ONC-001,EX,SYNTH-ONC-001-0124,19,FULVESTRANT,500,mg,INTRAMUSCULAR,ONCE,2022-10-10,2022-10-10
SYNTH-ONC-001,EX,SYNTH-ONC-001-0124,20,PLACEBO,10,mg,ORAL,QD,2021-06-21,2022-11-06
SYNTH-ONC-001,EX,SYNTH-ONC-001-0125,1,FULVESTRANT,500,mg,INTRAMUSCULAR,ONCE,2021-08-08,2021-08-08
SYNTH-ONC-001,EX,SYNTH-ONC-001-0125,2,FULVESTRANT,500,mg,INTRAMUSCULAR,ONCE,2021-08-22,2021-08-22
SYNTH-ONC-001,EX,SYNTH-ONC-001-0125,3,FULVESTRANT,500,mg,INTRAMUSCULAR,ONCE,2021-09-05,2021-09-05
SYNTH-ONC-001,EX,SYNTH-ONC-001-0125,4,FULVESTRANT,500,mg,INTRAMUSCULAR,ONCE,2021-10-03,2021-10-03
SYNTH-ONC-001,EX,SYNTH-ONC-001-0125,5,FULVESTRANT,500,mg,INTRAMUSCULAR,ONCE,2021-10-31,2021-10-31
SYNTH-ONC-001,EX,SYNTH-ONC-001-0125,6,FULVESTRANT,500,mg,INTRAMUSCULAR,ONCE,2021-11-28,2021-11-28
SYNTH-ONC-001,EX,SYNTH-ONC-001-0125,7,FULVESTRANT,500,mg,INTRAMUSCULAR,ONCE,2021-12-26,2021-12-26
SYNTH-ONC-001,EX,SYNTH-ONC-001-0125,8,FULVESTRANT,500,mg,INTRAMUSCULAR,ONCE,2022-01-23,2022-01-23
SYNTH-ONC-001,EX,SYNTH-ONC-001-0125,9,FULVESTRANT,500,mg,INTRAMUSCULAR,ONCE,2022-02-20,2022-02-20
SYNTH-ONC-001,EX,SYNTH-ONC-001-0125,10,FULVESTRANT,500,mg,INTRAMUSCULAR,ONCE,2022-03-20,2022-03-20
SYNTH-ONC-001,EX,SYNTH-ONC-001-0125,11,FULVESTRANT,500,mg,INTRAMUSCULAR,ONCE,2022-04-17,2022-04-17
SYNTH-ONC-001,EX,SYNTH-ONC-001-0125,12,FULVESTRANT,500,mg,INTRAMUSCULAR,ONCE,2022-05-15,2022-05-15
SYNTH-ONC-001,EX,SYNTH-ONC-001-0125,13,FULVESTRANT,500,mg,INTRAMUSCULAR,ONCE,2022-06-12,2022-06-12
SYNTH-ONC-001,EX,SYNTH-ONC-001-0125,14,FULVESTRANT,500,mg,INTRAMUSCULAR,ONCE,2022-07-10,2022-07-10
SYNTH-ONC-001,EX,SYNTH-ONC-001-0125,15,FULVESTRANT,500,mg,INTRAMUSCULAR,ONCE,2022-08-07,2022-08-07
SYNTH-ONC-001,EX,SYNTH-ONC-001-0125,16,FULVESTRANT,500,mg,INTRAMUSCULAR,ONCE,2022-09-04,2022-09-04
SYNTH-ONC-001,EX,SYNTH-ONC-001-0125,17,FULVESTRANT,500,mg,INTRAMUSCULAR,ONCE,2022-10-02,2022-10-02
SYNTH-ONC-001,EX,SYNTH-ONC-001-0125,18,EVEROLIMUS,10,mg,ORAL,QD,2021-08-08,2022-10-29
SYNTH-ONC-001,EX,SYNTH-ONC-001-0126,1,FULVESTRANT,500,mg,INTRAMUSCULAR,ONCE,2021-06-07,2021-06-07
SYNTH-ONC-001,EX,SYNTH-ONC-001-0126,2,FULVESTRANT,500,mg,INTRAMUSCULAR,ONCE,2021-06-21,2021-06-21
SYNTH-ONC-001,EX,SYNTH-ONC-001-0126,3,FULVESTRANT,500,mg,INTRAMUSCULAR,ONCE,2021-07-05,2021-07-05
SYNTH-ONC-001,EX,SYNTH-ONC-001-0126,4,FULVESTRANT,500,mg,INTRAMUSCULAR,ONCE,2021-08-02,2021-08-02
SYNTH-ONC-001,EX,SYNTH-ONC-001-0126,5,FULVESTRANT,500,mg,INTRAMUSCULAR,ONCE,2021-08-30,2021-08-30
SYNTH-ONC-001,EX,SYNTH-ONC-001-0126,6,FULVESTRANT,500,mg,INTRAMUSCULAR,ONCE,2021-09-27,2021-09-27
SYNTH-ONC-001,EX,SYNTH-ONC-001-0126,7,FULVESTRANT,500,mg,INTRAMUSCULAR,ONCE,2021-10-25,2021-10-25
SYNTH-ONC-001,EX,SYNTH-ONC-001-0126,8,FULVESTRANT,500,mg,INTRAMUSCULAR,ONCE,2021-11-22,2021-11-22
SYNTH-ONC-001,EX,SYNTH-ONC-001-0126,9,FULVESTRANT,500,mg,INTRAMUSCULAR,ONCE,2021-12-20,2021-12-20
SYNTH-ONC-001,EX,SYNTH-ONC-001-0126,10,FULVESTRANT,500,mg,INTRAMUSCULAR,ONCE,2022-01-17,2022-01-17
SYNTH-ONC-001,EX,SYNTH-ONC-001-0126,11,FULVESTRANT,500,mg,INTRAMUSCULAR,ONCE,2022-02-14,2022-02-14
SYNTH-ONC-001,EX,SYNTH-ONC-001-0126,12,FULVESTRANT,500,mg,INTRAMUSCULAR,ONCE,2022-03-14,2022-03-14
SYNTH-ONC-001,EX,SYNTH-ONC-001-0126,13,FULVESTRANT,500,mg,INTRAMUSCULAR,ONCE,2022-04-11,2022-04-11
SYNTH-ONC-001,EX,SYNTH-ONC-001-0126,14,FULVESTRANT,500,mg,INTRAMUSCULAR,ONCE,2022-05-09,2022-05-09
SYNTH-ONC-001,EX,SYNTH-ONC-001-0126,15,EVEROLIMUS,10,mg,ORAL,QD,2021-06-07,2022-05-21
SYNTH-ONC-001,EX,SYNTH-ONC-001-0127,1,FULVESTRANT,500,mg,INTRAMUSCULAR,ONCE,2022-04-22,2022-04-22
SYNTH-ONC-001,EX,SYNTH-ONC-001-0127,2,FULVESTRANT,500,mg,INTRAMUSCULAR,ONCE,2022-05-06,2022-05-06
SYNTH-ONC-001,EX,SYNTH-ONC-001-0127,3,FULVESTRANT,500,mg,INTRAMUSCULAR,ONCE,2022-05-20,2022-05-20
SYNTH-ONC-001,EX,SYNTH-ONC-001-0127,4,FULVESTRANT,500,mg,INTRAMUSCULAR,ONCE,2022-06-17,2022-06-17
SYNTH-ONC-001,EX,SYNTH-ONC-001-0127,5,FULVESTRANT,500,mg,INTRAMUSCULAR,ONCE,2022-07-15,2022-07-15
SYNTH-ONC-001,EX,SYNTH-ONC-001-0127,6,FULVESTRANT,500,mg,INTRAMUSCULAR,ONCE,2022-08-12,2022-08-12
SYNTH-ONC-001,EX,SYNTH-ONC-001-0127,7,FULVESTRANT,500,mg,INTRAMUSCULAR,ONCE,2022-09-09,2022-09-09
SYNTH-ONC-001,EX,SYNTH-ONC-001-0127,8,FULVESTRANT,500,mg,INTRAMUSCULAR,ONCE,2022-10-07,2022-10-07
SYNTH-ONC-001,EX,SYNTH-ONC-001-0127,9,FULVESTRANT,500,mg,INTRAMUSCULAR,ONCE,2022-11-04,2022-11-04
SYNTH-ONC-001,EX,SYNTH-ONC-001-0127,10,FULVESTRANT,500,mg,INTRAMUSCULAR,ONCE,2022-12-02,2022-12-02
SYNTH-ONC-001,EX,SYNTH-ONC-001-0127,11,FULVESTRANT,500,mg,INTRAMUSCULAR,ONCE,2022-12-30,2022-12-30
SYNTH-ONC-001,EX,SYNTH-ONC-001-0127,12,FULVESTRANT,500,mg,INTRAMUSCULAR,ONCE,2023-01-27,2023-01-27
SYNTH-ONC-001,EX,SYNTH-ONC-001-0127,13,FULVESTRANT,500,mg,INTRAMUSCULAR,ONCE,2023-02-24,2023-02-24
SYNTH-ONC-001,EX,SYNTH-ONC-001-0127,14,PLACEBO,10,mg,ORAL,QD,2022-04-22,2023-03-05
SYNTH-ONC-001,EX,SYNTH-ONC-001-0128,1,FULVESTRANT,500,mg,INTRAMUSCULAR,ONCE,2021-02-15,2021-02-15
SYNTH-ONC-001,EX,SYNTH-ONC-001-0128,2,FULVESTRANT,500,mg,INTRAMUSCULAR,ONCE,2021-03-01,2021-03-01
SYNTH-ONC-001,EX,SYNTH-ONC-001-0128,3,FULVESTRANT,500,mg,INTRAMUSCULAR,ONCE,2021-03-15,2021-03-15
SYNTH-ONC-001,EX,SYNTH-ONC-001-0128,4,FULVESTRANT,500,mg,INTRAMUSCULAR,ONCE,2021-04-12,2021-04-12
SYNTH-ONC-001,EX,SYNTH-ONC-001-0128,5,FULVESTRANT,500,mg,INTRAMUSCULAR,ONCE,2021-05-10,2021-05-10
SYNTH-ONC-001,EX,SYNTH-ONC-001-0128,6,FULVESTRANT,500,mg,INTRAMUSCULAR,ONCE,2021-06-07,2021-06-07
SYNTH-ONC-001,EX,SYNTH-ONC-001-0128,7,FULVESTRANT,500,mg,INTRAMUSCULAR,ONCE,2021-07-05,2021-07-05
SYNTH-ONC-001,EX,SYNTH-ONC-001-0128,8,FULVESTRANT,500,mg,INTRAMUSCULAR,ONCE,2021-08-02,2021-08-02
SYNTH-ONC-001,EX,SYNTH-ONC-001-0128,9,FULVESTRANT,500,mg,INTRAMUSCULAR,ONCE,2021-08-30,2021-08-30
SYNTH-ONC-001,EX,SYNTH-ONC-001-0128,10,FULVESTRANT,500,mg,INTRAMUSCULAR,ONCE,2021-09-27,2021-09-27
SYNTH-ONC-001,EX,SYNTH-ONC-001-0128,11,FULVESTRANT,500,mg,INTRAMUSCULAR,ONCE,2021-10-25,2021-10-25
SYNTH-ONC-001,EX,SYNTH-ONC-001-0128,12,FULVESTRANT,500,mg,INTRAMUSCULAR,ONCE,2021-11-22,2021-11-22
SYNTH-ONC-001,EX,SYNTH-ONC-001-0128,13,FULVESTRANT,500,mg,INTRAMUSCULAR,ONCE,2021-12-20,2021-12-20
SYNTH-ONC-001,EX,SYNTH-ONC-001-0128,14,FULVESTRANT,500,mg,INTRAMUSCULAR,ONCE,2022-01-17,2022-01-17
SYNTH-ONC-001,EX,SYNTH-ONC-001-0128,15,FULVESTRANT,500,mg,INTRAMUSCULAR,ONCE,2022-02-14,2022-02-14
SYNTH-ONC-001,EX,SYNTH-ONC-001-0128,16,FULVESTRANT,500,mg,INTRAMUSCULAR,ONCE,2022-03-14,2022-03-14
SYNTH-ONC-001,EX,SYNTH-ONC-001-0128,17,FULVESTRANT,500,mg,INTRAMUSCULAR,ONCE,2022-04-11,2022-04-11
SYNTH-ONC-001,EX,SYNTH-ONC-001-0128,18,FULVESTRANT,500,mg,INTRAMUSCULAR,ONCE,2022-05-09,2022-05-09
SYNTH-ONC-001,EX,SYNTH-ONC-001-0128,19,FULVESTRANT,500,mg,INTRAMUSCULAR,ONCE,2022-06-06,2022-06-06
SYNTH-ONC-001,EX,SYNTH-ONC-001-0128,20,FULVESTRANT,500,mg,INTRAMUSCULAR,ONCE,2022-07-04,2022-07-04
SYNTH-ONC-001,EX,SYNTH-ONC-001-0128,21,PLACEBO,10,mg,ORAL,QD,2021-02-15,2022-07-12
SYNTH-ONC-001,EX,SYNTH-ONC-001-0129,1,FULVESTRANT,500,mg,INTRAMUSCULAR,ONCE,2022-01-08,2022-01-08
SYNTH-ONC-001,EX,SYNTH-ONC-001-0129,2,FULVESTRANT,500,mg,INTRAMUSCULAR,ONCE,2022-01-22,2022-01-22
SYNTH-ONC-001,EX,SYNTH-ONC-001-0129,3,FULVESTRANT,500,mg,INTRAMUSCULAR,ONCE,2022-02-05,2022-02-05
SYNTH-ONC-001,EX,SYNTH-ONC-001-0129,4,FULVESTRANT,500,mg,INTRAMUSCULAR,ONCE,2022-03-05,2022-03-05
SYNTH-ONC-001,EX,SYNTH-ONC-001-0129,5,FULVESTRANT,500,mg,INTRAMUSCULAR,ONCE,2022-04-02,2022-04-02
SYNTH-ONC-001,EX,SYNTH-ONC-001-0129,6,FULVESTRANT,500,mg,INTRAMUSCULAR,ONCE,2022-04-30,2022-04-30
SYNTH-ONC-001,EX,SYNTH-ONC-001-0129,7,FULVESTRANT,500,mg,INTRAMUSCULAR,ONCE,2022-05-28,2022-05-28
SYNTH-ONC-001,EX,SYNTH-ONC-001-0129,8,FULVESTRANT,500,mg,INTRAMUSCULAR,ONCE,2022-06-25,2022-06-25
SYNTH-ONC-001,EX,SYNTH-ONC-001-0129,9,EVEROLIMUS,10,mg,ORAL,QD,2022-01-08,2022-06-27
SYNTH-ONC-001,EX,SYNTH-ONC-001-0130,1,FULVESTRANT,500,mg,INTRAMUSCULAR,ONCE,2022-06-02,2022-06-02
SYNTH-ONC-001,EX,SYNTH-ONC-001-0130,2,FULVESTRANT,500,mg,INTRAMUSCULAR,ONCE,2022-06-16,2022-06-16
SYNTH-ONC-001,EX,SYNTH-ONC-001-0130,3,FULVESTRANT,500,mg,INTRAMUSCULAR,ONCE,2022-06-30,2022-06-30
SYNTH-ONC-001,EX,SYNTH-ONC-001-0130,4,FULVESTRANT,500,mg,INTRAMUSCULAR,ONCE,2022-07-28,2022-07-28
SYNTH-ONC-001,EX,SYNTH-ONC-001-0130,5,FULVESTRANT,500,mg,INTRAMUSCULAR,ONCE,2022-08-25,2022-08-25
SYNTH-ONC-001,EX,SYNTH-ONC-001-0130,6,FULVESTRANT,500,mg,INTRAMUSCULAR,ONCE,2022-09-22,2022-09-22
SYNTH-ONC-001,EX,SYNTH-ONC-001-0130,7,FULVESTRANT,500,mg,INTRAMUSCULAR,ONCE,2022-10-20,2022-10-20
SYNTH-ONC-001,EX,SYNTH-ONC-001-0130,8,FULVESTRANT,500,mg,INTRAMUSCULAR,ONCE,2022-11-17,2022-11-17
SYNTH-ONC-001,EX,SYNTH-ONC-001-0130,9,FULVESTRANT,500,mg,INTRAMUSCULAR,ONCE,2022-12-15,2022-12-15
SYNTH-ONC-001,EX,SYNTH-ONC-001-0130,10,FULVESTRANT,500,mg,INTRAMUSCULAR,ONCE,2023-01-12,2023-01-12
SYNTH-ONC-001,EX,SYNTH-ONC-001-0130,11,FULVESTRANT,500,mg,INTRAMUSCULAR,ONCE,2023-02-09,2023-02-09
SYNTH-ONC-001,EX,SYNTH-ONC-001-0130,12,FULVESTRANT,500,mg,INTRAMUSCULAR,ONCE,2023-03-09,2023-03-09
SYNTH-ONC-001,EX,SYNTH-ONC-001-0130,13,FULVESTRANT,500,mg,INTRAMUSCULAR,ONCE,2023-04-06,2023-04-06
SYNTH-ONC-001,EX,SYNTH-ONC-001-0130,14,FULVESTRANT,500,mg,INTRAMUSCULAR,ONCE,2023-05-04,2023-05-04
SYNTH-ONC-001,EX,SYNTH-ONC-001-0130,15,FULVESTRANT,500,mg,INTRAMUSCULAR,ONCE,2023-06-01,2023-06-01
SYNTH-ONC-001,EX,SYNTH-ONC-001-0130,16,FULVESTRANT,500,mg,INTRAMUSCULAR,ONCE,2023-06-29,2023-06-29
SYNTH-ONC-001,EX,SYNTH-ONC-001-0130,17,FULVESTRANT,500,mg,INTRAMUSCULAR,ONCE,2023-07-27,2023-07-27
SYNTH-ONC-001,EX,SYNTH-ONC-001-0130,18,FULVESTRANT,500,mg,INTRAMUSCULAR,ONCE,2023-08-24,2023-08-24
SYNTH-ONC-001,EX,SYNTH-ONC-001-0130,19,FULVESTRANT,500,mg,INTRAMUSCULAR,ONCE,2023-09-21,2023-09-21
SYNTH-ONC-001,EX,SYNTH-ONC-001-0130,20,FULVESTRANT,500,mg,INTRAMUSCULAR,ONCE,2023-10-19,2023-10-19
SYNTH-ONC-001,EX,SYNTH-ONC-001-0130,21,FULVESTRANT,500,mg,INTRAMUSCULAR,ONCE,2023-11-16,2023-11-16
SYNTH-ONC-001,EX,SYNTH-ONC-001-0130,22,FULVESTRANT,500,mg,INTRAMUSCULAR,ONCE,2023-12-14,2023-12-14
SYNTH-ONC-001,EX,SYNTH-ONC-001-0130,23,EVEROLIMUS,10,mg,ORAL,QD,2022-06-02,2024-01-05
SYNTH-ONC-001,EX,SYNTH-ONC-001-0131,1,FULVESTRANT,500,mg,INTRAMUSCULAR,ONCE,2021-04-09,2021-04-09
SYNTH-ONC-001,EX,SYNTH-ONC-001-0131,2,FULVESTRANT,500,mg,INTRAMUSCULAR,ONCE,2021-04-23,2021-04-23
SYNTH-ONC-001,EX,SYNTH-ONC-001-0131,3,FULVESTRANT,500,mg,INTRAMUSCULAR,ONCE,2021-05-07,2021-05-07
SYNTH-ONC-001,EX,SYNTH-ONC-001-0131,4,FULVESTRANT,500,mg,INTRAMUSCULAR,ONCE,2021-06-04,2021-06-04
SYNTH-ONC-001,EX,SYNTH-ONC-001-0131,5,FULVESTRANT,500,mg,INTRAMUSCULAR,ONCE,2021-07-02,2021-07-02
SYNTH-ONC-001,EX,SYNTH-ONC-001-0131,6,FULVESTRANT,500,mg,INTRAMUSCULAR,ONCE,2021-07-30,2021-07-30
SYNTH-ONC-001,EX,SYNTH-ONC-001-0131,7,FULVESTRANT,500,mg,INTRAMUSCULAR,ONCE,2021-08-27,2021-08-27
SYNTH-ONC-001,EX,SYNTH-ONC-001-0131,8,FULVESTRANT,500,mg,INTRAMUSCULAR,ONCE,2021-09-24,2021-09-24
SYNTH-ONC-001,EX,SYNTH-ONC-001-0131,9,FULVESTRANT,500,mg,INTRAMUSCULAR,ONCE,2021-10-22,2021-10-22
SYNTH-ONC-001,EX,SYNTH-ONC-001-0131,10,FULVESTRANT,500,mg,INTRAMUSCULAR,ONCE,2021-11-19,2021-11-19
SYNTH-ONC-001,EX,SYNTH-ONC-001-0131,11,FULVESTRANT,500,mg,INTRAMUSCULAR,ONCE,2021-12-17,2021-12-17
SYNTH-ONC-001,EX,SYNTH-ONC-001-0131,12,FULVESTRANT,500,mg,INTRAMUSCULAR,ONCE,2022-01-14,2022-01-14
SYNTH-ONC-001,EX,SYNTH-ONC-001-0131,13,FULVESTRANT,500,mg,INTRAMUSCULAR,ONCE,2022-02-11,2022-02-11
SYNTH-ONC-001,EX,SYNTH-ONC-001-0131,14,FULVESTRANT,500,mg,INTRAMUSCULAR,ONCE,2022-03-11,2022-03-11
SYNTH-ONC-001,EX,SYNTH-ONC-001-0131,15,FULVESTRANT,500,mg,INTRAMUSCULAR,ONCE,2022-04-08,2022-04-08
SYNTH-ONC-001,EX,SYNTH-ONC-001-0131,16,FULVESTRANT,500,mg,INTRAMUSCULAR,ONCE,2022-05-06,2022-05-06
SYNTH-ONC-001,EX,SYNTH-ONC-001-0131,17,FULVESTRANT,500,mg,INTRAMUSCULAR,ONCE,2022-06-03,2022-06-03
SYNTH-ONC-001,EX,SYNTH-ONC-001-0131,18,PLACEBO,10,mg,ORAL,QD,2021-04-09,2022-06-26
SYNTH-ONC-001,EX,SYNTH-ONC-001-0132,1,FULVESTRANT,500,mg,INTRAMUSCULAR,ONCE,2021-02-06,2021-02-06
SYNTH-ONC-001,EX,SYNTH-ONC-001-0132,2,FULVESTRANT,500,mg,INTRAMUSCULAR,ONCE,2021-02-20,2021-02-20
SYNTH-ONC-001,EX,SYNTH-ONC-001-0132,3,FULVESTRANT,500,mg,INTRAMUSCULAR,ONCE,2021-03-06,2021-03-06
SYNTH-ONC-001,EX,SYNTH-ONC-001-0132,4,FULVESTRANT,500,mg,INTRAMUSCULAR,ONCE,2021-04-03,2021-04-03
SYNTH-ONC-001,EX,SYNTH-ONC-001-0132,5,FULVESTRANT,500,mg,INTRAMUSCULAR,ONCE,2021-05-01,2021-05-01
SYNTH-ONC-001,EX,SYNTH-ONC-001-0132,6,FULVESTRANT,500,mg,INTRAMUSCULAR,ONCE,2021-05-29,2021-05-29
SYNTH-ONC-001,EX,SYNTH-ONC-001-0132,7,FULVESTRANT,500,mg,INTRAMUSCULAR,ONCE,2021-06-26,2021-06-26
SYNTH-ONC-001,EX,SYNTH-ONC-001-0132,8,EVEROLIMUS,10,mg,ORAL,QD,2021-02-06,2021-07-23
SYNTH-ONC-001,EX,SYNTH-ONC-001-0133,1,FULVESTRANT,500,mg,INTRAMUSCULAR,ONCE,2021-10-07,2021-10-07
SYNTH-ONC-001,EX,SYNTH-ONC-001-0133,2,FULVESTRANT,500,mg,INTRAMUSCULAR,ONCE,2021-10-21,2021-10-21
SYNTH-ONC-001,EX,SYNTH-ONC-001-0133,3,FULVESTRANT,500,mg,INTRAMUSCULAR,ONCE,2021-11-04,2021-11-04
SYNTH-ONC-001,EX,SYNTH-ONC-001-0133,4,FULVESTRANT,500,mg,INTRAMUSCULAR,ONCE,2021-12-02,2021-12-02
SYNTH-ONC-001,EX,SYNTH-ONC-001-0133,5,FULVESTRANT,500,mg,INTRAMUSCULAR,ONCE,2021-12-30,2021-12-30
SYNTH-ONC-001,EX,SYNTH-ONC-001-0133,6,FULVESTRANT,500,mg,INTRAMUSCULAR,ONCE,2022-01-27,2022-01-27
SYNTH-ONC-001,EX,SYNTH-ONC-001-0133,7,FULVESTRANT,500,mg,INTRAMUSCULAR,ONCE,2022-02-24,2022-02-24
SYNTH-ONC-001,EX,SYNTH-ONC-001-0133,8,FULVESTRANT,500,mg,INTRAMUSCULAR,ONCE,2022-03-24,2022-03-24
SYNTH-ONC-001,EX,SYNTH-ONC-001-0133,9,FULVESTRANT,500,mg,INTRAMUSCULAR,ONCE,2022-04-21,2022-04-21
SYNTH-ONC-001,EX,SYNTH-ONC-001-0133,10,FULVESTRANT,500,mg,INTRAMUSCULAR,ONCE,2022-05-19,2022-05-19
SYNTH-ONC-001,EX,SYNTH-ONC-001-0133,11,FULVESTRANT,500,mg,INTRAMUSCULAR,ONCE,2022-06-16,2022-06-16
SYNTH-ONC-001,EX,SYNTH-ONC-001-0133,12,FULVESTRANT,500,mg,INTRAMUSCULAR,ONCE,2022-07-14,2022-07-14
SYNTH-ONC-001,EX,SYNTH-ONC-001-0133,13,FULVESTRANT,500,mg,INTRAMUSCULAR,ONCE,2022-08-11,2022-08-11
SYNTH-ONC-001,EX,SYNTH-ONC-001-0133,14,FULVESTRANT,500,mg,INTRAMUSCULAR,ONCE,2022-09-08,2022-09-08
SYNTH-ONC-001,EX,SYNTH-ONC-001-0133,15,FULVESTRANT,500,mg,INTRAMUSCULAR,ONCE,2022-10-06,2022-10-06
SYNTH-ONC-001,EX,SYNTH-ONC-001-0133,16,FULVESTRANT,500,mg,INTRAMUSCULAR,ONCE,2022-11-03,2022-11-03
SYNTH-ONC-001,EX,SYNTH-ONC-001-0133,17,FULVESTRANT,500,mg,INTRAMUSCULAR,ONCE,2022-12-01,2022-12-01
SYNTH-ONC-001,EX,SYNTH-ONC-001-0133,18,FULVESTRANT,500,mg,INTRAMUSCULAR,ONCE,2022-12-29,2022-12-29
SYNTH-ONC-001,EX,SYNTH-ONC-001-0133,19,EVEROLIMUS,10,mg,ORAL,QD,2021-10-07,2023-01-07
SYNTH-ONC-001,EX,SYNTH-ONC-001-0134,1,FULVESTRANT,500,mg,INTRAMUSCULAR,ONCE,2021-12-15,2021-12-15
SYNTH-ONC-001,EX,SYNTH-ONC-001-0134,2,FULVESTRANT,500,mg,INTRAMUSCULAR,ONCE,2021-12-29,2021-12-29
SYNTH-ONC-001,EX,SYNTH-ONC-001-0134,3,FULVESTRANT,500,mg,INTRAMUSCULAR,ONCE,2022-01-12,2022-01-12
SYNTH-ONC-001,EX,SYNTH-ONC-001-0134,4,FULVESTRANT,500,mg,INTRAMUSCULAR,ONCE,2022-02-09,2022-02-09
SYNTH-ONC-001,EX,SYNTH-ONC-001-0134,5,FULVESTRANT,500,mg,INTRAMUSCULAR,ONCE,2022-03-09,2022-03-09
SYNTH-ONC-001,EX,SYNTH-ONC-001-0134,6,FULVESTRANT,500,mg,INTRAMUSCULAR,ONCE,2022-04-06,2022-04-06
SYNTH-ONC-001,EX,SYNTH-ONC-001-0134,7,FULVESTRANT,500,mg,INTRAMUSCULAR,ONCE,2022-05-04,2022-05-04
SYNTH-ONC-001,EX,SYNTH-ONC-001-0134,8,FULVESTRANT,500,mg,INTRAMUSCULAR,ONCE,2022-06-01,2022-06-01
SYNTH-ONC-001,EX,SYNTH-ONC-001-0134,9,FULVESTRANT,500,mg,INTRAMUSCULAR,ONCE,2022-06-29,2022-06-29
SYNTH-ONC-001,EX,SYNTH-ONC-001-0134,10,FULVESTRANT,500,mg,INTRAMUSCULAR,ONCE,2022-07-27,2022-07-27
SYNTH-ONC-001,EX,SYNTH-ONC-001-0134,11,FULVESTRANT,500,mg,INTRAMUSCULAR,ONCE,2022-08-24,2022-08-24
SYNTH-ONC-001,EX,SYNTH-ONC-001-0134,12,FULVESTRANT,500,mg,INTRAMUSCULAR,ONCE,2022-09-21,2022-09-21
SYNTH-ONC-001,EX,SYNTH-ONC-001-0134,13,FULVESTRANT,500,mg,INTRAMUSCULAR,ONCE,2022-10-19,2022-10-19
SYNTH-ONC-001,EX,SYNTH-ONC-001-0134,14,FULVESTRANT,500,mg,INTRAMUSCULAR,ONCE,2022-11-16,2022-11-16
SYNTH-ONC-001,EX,SYNTH-ONC-001-0134,15,PLACEBO,10,mg,ORAL,QD,2021-12-15,2022-11-26
SYNTH-ONC-001,EX,SYNTH-ONC-001-0135,1,FULVESTRANT,500,mg,INTRAMUSCULAR,ONCE,2022-05-12,2022-05-12
SYNTH-ONC-001,EX,SYNTH-ONC-001-0135,2,FULVESTRANT,500,mg,INTRAMUSCULAR,ONCE,2022-05-26,2022-05-26
SYNTH-ONC-001,EX,SYNTH-ONC-001-0135,3,FULVESTRANT,500,mg,INTRAMUSCULAR,ONCE,2022-06-09,2022-06-09
SYNTH-ONC-001,EX,SYNTH-ONC-001-0135,4,FULVESTRANT,500,mg,INTRAMUSCULAR,ONCE,2022-07-07,2022-07-07
SYNTH-ONC-001,EX,SYNTH-ONC-001-0135,5,FULVESTRANT,500,mg,INTRAMUSCULAR,ONCE,2022-08-04,2022-08-04
SYNTH-ONC-001,EX,SYNTH-ONC-001-0135,6,FULVESTRANT,500,mg,INTRAMUSCULAR,ONCE,2022-09-01,2022-09-01
SYNTH-ONC-001,EX,SYNTH-ONC-001-0135,7,FULVESTRANT,500,mg,INTRAMUSCULAR,ONCE,2022-09-29,2022-09-29
SYNTH-ONC-001,EX,SYNTH-ONC-001-0135,8,FULVESTRANT,500,mg,INTRAMUSCULAR,ONCE,2022-10-27,2022-10-27
SYNTH-ONC-001,EX,SYNTH-ONC-001-0135,9,FULVESTRANT,500,mg,INTRAMUSCULAR,ONCE,2022-11-24,2022-11-24
SYNTH-ONC-001,EX,SYNTH-ONC-001-0135,10,FULVESTRANT,500,mg,INTRAMUSCULAR,ONCE,2022-12-22,2022-12-22
SYNTH-ONC-001,EX,SYNTH-ONC-001-0135,11,FULVESTRANT,500,mg,INTRAMUSCULAR,ONCE,2023-01-19,2023-01-19
SYNTH-ONC-001,EX,SYNTH-ONC-001-0135,12,FULVESTRANT,500,mg,INTRAMUSCULAR,ONCE,2023-02-16,2023-02-16
SYNTH-ONC-001,EX,SYNTH-ONC-001-0135,13,FULVESTRANT,500,mg,INTRAMUSCULAR,ONCE,2023-03-16,2023-03-16
SYNTH-ONC-001,EX,SYNTH-ONC-001-0135,14,FULVESTRANT,500,mg,INTRAMUSCULAR,ONCE,2023-04-13,2023-04-13
SYNTH-ONC-001,EX,SYNTH-ONC-001-0135,15,FULVESTRANT,500,mg,INTRAMUSCULAR,ONCE,2023-05-11,2023-05-11
SYNTH-ONC-001,EX,SYNTH-ONC-001-0135,16,FULVESTRANT,500,mg,INTRAMUSCULAR,ONCE,2023-06-08,2023-06-08
SYNTH-ONC-001,EX,SYNTH-ONC-001-0135,17,FULVESTRANT,500,mg,INTRAMUSCULAR,ONCE,2023-07-06,2023-07-06
SYNTH-ONC-001,EX,SYNTH-ONC-001-0135,18,EVEROLIMUS,10,mg,ORAL,QD,2022-05-12,2023-07-27
SYNTH-ONC-001,EX,SYNTH-ONC-001-0136,1,FULVESTRANT,500,mg,INTRAMUSCULAR,ONCE,2021-10-29,2021-10-29
SYNTH-ONC-001,EX,SYNTH-ONC-001-0136,2,FULVESTRANT,500,mg,INTRAMUSCULAR,ONCE,2021-11-12,2021-11-12
SYNTH-ONC-001,EX,SYNTH-ONC-001-0136,3,FULVESTRANT,500,mg,INTRAMUSCULAR,ONCE,2021-11-26,2021-11-26
SYNTH-ONC-001,EX,SYNTH-ONC-001-0136,4,FULVESTRANT,500,mg,INTRAMUSCULAR,ONCE,2021-12-24,2021-12-24
SYNTH-ONC-001,EX,SYNTH-ONC-001-0136,5,FULVESTRANT,500,mg,INTRAMUSCULAR,ONCE,2022-01-21,2022-01-21
SYNTH-ONC-001,EX,SYNTH-ONC-001-0136,6,FULVESTRANT,500,mg,INTRAMUSCULAR,ONCE,2022-02-18,2022-02-18
SYNTH-ONC-001,EX,SYNTH-ONC-001-0136,7,FULVESTRANT,500,mg,INTRAMUSCULAR,ONCE,2022-03-18,2022-03-18
SYNTH-ONC-001,EX,SYNTH-ONC-001-0136,8,FULVESTRANT,500,mg,INTRAMUSCULAR,ONCE,2022-04-15,2022-04-15
SYNTH-ONC-001,EX,SYNTH-ONC-001-0136,9,FULVESTRANT,500,mg,INTRAMUSCULAR,ONCE,2022-05-13,2022-05-13
SYNTH-ONC-001,EX,SYNTH-ONC-001-0136,10,FULVESTRANT,500,mg,INTRAMUSCULAR,ONCE,2022-06-10,2022-06-10
SYNTH-ONC-001,EX,SYNTH-ONC-001-0136,11,FULVESTRANT,500,mg,INTRAMUSCULAR,ONCE,2022-07-08,2022-07-08
SYNTH-ONC-001,EX,SYNTH-ONC-001-0136,12,FULVESTRANT,500,mg,INTRAMUSCULAR,ONCE,2022-08-05,2022-08-05
SYNTH-ONC-001,EX,SYNTH-ONC-001-0136,13,FULVESTRANT,500,mg,INTRAMUSCULAR,ONCE,2022-09-02,2022-09-02
SYNTH-ONC-001,EX,SYNTH-ONC-001-0136,14,FULVESTRANT,500,mg,INTRAMUSCULAR,ONCE,2022-09-30,2022-09-30
SYNTH-ONC-001,EX,SYNTH-ONC-001-0136,15,FULVESTRANT,500,mg,INTRAMUSCULAR,ONCE,2022-10-28,2022-10-28
SYNTH-ONC-001,EX,SYNTH-ONC-001-0136,16,FULVESTRANT,500,mg,INTRAMUSCULAR,ONCE,2022-11-25,2022-11-25
SYNTH-ONC-001,EX,SYNTH-ONC-001-0136,17,FULVESTRANT,500,mg,INTRAMUSCULAR,ONCE,2022-12-23,2022-12-23
SYNTH-ONC-001,EX,SYNTH-ONC-001-0136,18,FULVESTRANT,500,mg,INTRAMUSCULAR,ONCE,2023-01-20,2023-01-20
SYNTH-ONC-001,EX,SYNTH-ONC-001-0136,19,PLACEBO,10,mg,ORAL,QD,2021-10-29,2023-02-15
SYNTH-ONC-001,EX,SYNTH-ONC-001-0137,1,FULVESTRANT,500,mg,INTRAMUSCULAR,ONCE,2021-06-30,2021-06-30
SYNTH-ONC-001,EX,SYNTH-ONC-001-0137,2,FULVESTRANT,500,mg,INTRAMUSCULAR,ONCE,2021-07-14,2021-07-14
SYNTH-ONC-001,EX,SYNTH-ONC-001-0137,3,FULVESTRANT,500,mg,INTRAMUSCULAR,ONCE,2021-07-28,2021-07-28
SYNTH-ONC-001,EX,SYNTH-ONC-001-0137,4,FULVESTRANT,500,mg,INTRAMUSCULAR,ONCE,2021-08-25,2021-08-25
SYNTH-ONC-001,EX,SYNTH-ONC-001-0137,5,FULVESTRANT,500,mg,INTRAMUSCULAR,ONCE,2021-09-22,2021-09-22
SYNTH-ONC-001,EX,SYNTH-ONC-001-0137,6,EVEROLIMUS,10,mg,ORAL,QD,2021-06-30,2021-10-15
SYNTH-ONC-001,EX,SYNTH-ONC-001-0138,1,FULVESTRANT,500,mg,INTRAMUSCULAR,ONCE,2022-08-30,2022-08-30
SYNTH-ONC-001,EX,SYNTH-ONC-001-0138,2,FULVESTRANT,500,mg,INTRAMUSCULAR,ONCE,2022-09-13,2022-09-13
SYNTH-ONC-001,EX,SYNTH-ONC-001-0138,3,FULVESTRANT,500,mg,INTRAMUSCULAR,ONCE,2022-09-27,2022-09-27
SYNTH-ONC-001,EX,SYNTH-ONC-001-0138,4,FULVESTRANT,500,mg,INTRAMUSCULAR,ONCE,2022-10-25,2022-10-25
SYNTH-ONC-001,EX,SYNTH-ONC-001-0138,5,FULVESTRANT,500,mg,INTRAMUSCULAR,ONCE,2022-11-22,2022-11-22
SYNTH-ONC-001,EX,SYNTH-ONC-001-0138,6,FULVESTRANT,500,mg,INTRAMUSCULAR,ONCE,2022-12-20,2022-12-20
SYNTH-ONC-001,EX,SYNTH-ONC-001-0138,7,FULVESTRANT,500,mg,INTRAMUSCULAR,ONCE,2023-01-17,2023-01-17
SYNTH-ONC-001,EX,SYNTH-ONC-001-0138,8,FULVESTRANT,500,mg,INTRAMUSCULAR,ONCE,2023-02-14,2023-02-14
SYNTH-ONC-001,EX,SYNTH-ONC-001-0138,9,FULVESTRANT,500,mg,INTRAMUSCULAR,ONCE,2023-03-14,2023-03-14
SYNTH-ONC-001,EX,SYNTH-ONC-001-0138,10,FULVESTRANT,500,mg,INTRAMUSCULAR,ONCE,2023-04-11,2023-04-11
SYNTH-ONC-001,EX,SYNTH-ONC-001-0138,11,FULVESTRANT,500,mg,INTRAMUSCULAR,ONCE,2023-05-09,2023-05-09
SYNTH-ONC-001,EX,SYNTH-ONC-001-0138,12,FULVESTRANT,500,mg,INTRAMUSCULAR,ONCE,2023-06-06,2023-06-06
SYNTH-ONC-001,EX,SYNTH-ONC-001-0138,13,FULVESTRANT,500,mg,INTRAMUSCULAR,ONCE,2023-07-04,2023-07-04
SYNTH-ONC-001,EX,SYNTH-ONC-001-0138,14,PLACEBO,10,mg,ORAL,QD,2022-08-30,2023-07-29
SYNTH-ONC-001,EX,SYNTH-ONC-001-0139,1,FULVESTRANT,500,mg,INTRAMUSCULAR,ONCE,2021-04-09,2021-04-09
SYNTH-ONC-001,EX,SYNTH-ONC-001-0139,2,FULVESTRANT,500,mg,INTRAMUSCULAR,ONCE,2021-04-23,2021-04-23
SYNTH-ONC-001,EX,SYNTH-ONC-001-0139,3,FULVESTRANT,500,mg,INTRAMUSCULAR,ONCE,2021-05-07,2021-05-07
SYNTH-ONC-001,EX,SYNTH-ONC-001-0139,4,FULVESTRANT,500,mg,INTRAMUSCULAR,ONCE,2021-06-04,2021-06-04
SYNTH-ONC-001,EX,SYNTH-ONC-001-0139,5,FULVESTRANT,500,mg,INTRAMUSCULAR,ONCE,2021-07-02,2021-07-02
SYNTH-ONC-001,EX,SYNTH-ONC-001-0139,6,FULVESTRANT,500,mg,INTRAMUSCULAR,ONCE,2021-07-30,2021-07-30
SYNTH-ONC-001,EX,SYNTH-ONC-001-0139,7,FULVESTRANT,500,mg,INTRAMUSCULAR,ONCE,2021-08-27,2021-08-27
SYNTH-ONC-001,EX,SYNTH-ONC-001-0139,8,FULVESTRANT,500,mg,INTRAMUSCULAR,ONCE,2021-09-24,2021-09-24
SYNTH-ONC-001,EX,SYNTH-ONC-001-0139,9,FULVESTRANT,500,mg,INTRAMUSCULAR,ONCE,2021-10-22,2021-10-22
SYNTH-ONC-001,EX,SYNTH-ONC-001-0139,10,FULVESTRANT,500,mg,INTRAMUSCULAR,ONCE,2021-11-19,2021-11-19
SYNTH-ONC-001,EX,SYNTH-ONC-001-0139,11,FULVESTRANT,500,mg,INTRAMUSCULAR,ONCE,2021-12-17,2021-12-17
SYNTH-ONC-001,EX,SYNTH-ONC-001-0139,12,FULVESTRANT,500,mg,INTRAMUSCULAR,ONCE,2022-01-14,2022-01-14
SYNTH-ONC-001,EX,SYNTH-ONC-001-0139,13,FULVESTRANT,500,mg,INTRAMUSCULAR,ONCE,2022-02-11,2022-02-11
SYNTH-ONC-001,EX,SYNTH-ONC-001-0139,14,FULVESTRANT,500,mg,INTRAMUSCULAR,ONCE,2022-03-11,2022-03-11
SYNTH-ONC-001,EX,SYNTH-ONC-001-0139,15,FULVESTRANT,500,mg,INTRAMUSCULAR,ONCE,2022-04-08,2022-04-08
SYNTH-ONC-001,EX,SYNTH-ONC-001-0139,16,FULVESTRANT,500,mg,INTRAMUSCULAR,ONCE,2022-05-06,2022-05-06
SYNTH-ONC-001,EX,SYNTH-ONC-001-0139,17,FULVESTRANT,500,mg,INTRAMUSCULAR,ONCE,2022-06-03,2022-06-03
SYNTH-ONC-001,EX,SYNTH-ONC-001-0139,18,FULVESTRANT,500,mg,INTRAMUSCULAR,ONCE,2022-07-01,2022-07-01
SYNTH-ONC-001,EX,SYNTH-ONC-001-0139,19,FULVESTRANT,500,mg,INTRAMUSCULAR,ONCE,2022-07-29,2022-07-29
SYNTH-ONC-001,EX,SYNTH-ONC-001-0139,20,FULVESTRANT,500,mg,INTRAMUSCULAR,ONCE,2022-08-26,2022-08-26
SYNTH-ONC-001,EX,SYNTH-ONC-001-0139,21,FULVESTRANT,500,mg,INTRAMUSCULAR,ONCE,2022-09-23,2022-09-23
SYNTH-ONC-001,EX,SYNTH-ONC-001-0139,22,FULVESTRANT,500,mg,INTRAMUSCULAR,ONCE,2022-10-21,2022-10-21
SYNTH-ONC-001,EX,SYNTH-ONC-001-0139,23,EVEROLIMUS,10,mg,ORAL,QD,2021-04-09,2022-10-24
SYNTH-ONC-001,EX,SYNTH-ONC-001-0140,1,FULVESTRANT,500,mg,INTRAMUSCULAR,ONCE,2022-12-01,2022-12-01
SYNTH-ONC-001,EX,SYNTH-ONC-001-0140,2,FULVESTRANT,500,mg,INTRAMUSCULAR,ONCE,2022-12-15,2022-12-15
SYNTH-ONC-001,EX,SYNTH-ONC-001-0140,3,FULVESTRANT,500,mg,INTRAMUSCULAR,ONCE,2022-12-29,2022-12-29
SYNTH-ONC-001,EX,SYNTH-ONC-001-0140,4,FULVESTRANT,500,mg,INTRAMUSCULAR,ONCE,2023-01-26,2023-01-26
SYNTH-ONC-001,EX,SYNTH-ONC-001-0140,5,FULVESTRANT,500,mg,INTRAMUSCULAR,ONCE,2023-02-23,2023-02-23
SYNTH-ONC-001,EX,SYNTH-ONC-001-0140,6,FULVESTRANT,500,mg,INTRAMUSCULAR,ONCE,2023-03-23,2023-03-23
SYNTH-ONC-001,EX,SYNTH-ONC-001-0140,7,FULVESTRANT,500,mg,INTRAMUSCULAR,ONCE,2023-04-20,2023-04-20
SYNTH-ONC-001,EX,SYNTH-ONC-001-0140,8,FULVESTRANT,500,mg,INTRAMUSCULAR,ONCE,2023-05-18,2023-05-18
SYNTH-ONC-001,EX,SYNTH-ONC-001-0140,9,FULVESTRANT,500,mg,INTRAMUSCULAR,ONCE,2023-06-15,2023-06-15
SYNTH-ONC-001,EX,SYNTH-ONC-001-0140,10,FULVESTRANT,500,mg,INTRAMUSCULAR,ONCE,2023-07-13,2023-07-13
SYNTH-ONC-001,EX,SYNTH-ONC-001-0140,11,PLACEBO,10,mg,ORAL,QD,2022-12-01,2023-07-22
SYNTH-ONC-001,EX,SYNTH-ONC-001-0141,1,FULVESTRANT,500,mg,INTRAMUSCULAR,ONCE,2021-04-26,2021-04-26
SYNTH-ONC-001,EX,SYNTH-ONC-001-0141,2,FULVESTRANT,500,mg,INTRAMUSCULAR,ONCE,2021-05-10,2021-05-10
SYNTH-ONC-001,EX,SYNTH-ONC-001-0141,3,FULVESTRANT,500,mg,INTRAMUSCULAR,ONCE,2021-05-24,2021-05-24
SYNTH-ONC-001,EX,SYNTH-ONC-001-0141,4,FULVESTRANT,500,mg,INTRAMUSCULAR,ONCE,2021-06-21,2021-06-21
SYNTH-ONC-001,EX,SYNTH-ONC-001-0141,5,FULVESTRANT,500,mg,INTRAMUSCULAR,ONCE,2021-07-19,2021-07-19
SYNTH-ONC-001,EX,SYNTH-ONC-001-0141,6,FULVESTRANT,500,mg,INTRAMUSCULAR,ONCE,2021-08-16,2021-08-16
SYNTH-ONC-001,EX,SYNTH-ONC-001-0141,7,FULVESTRANT,500,mg,INTRAMUSCULAR,ONCE,2021-09-13,2021-09-13
SYNTH-ONC-001,EX,SYNTH-ONC-001-0141,8,FULVESTRANT,500,mg,INTRAMUSCULAR,ONCE,2021-10-11,2021-10-11
SYNTH-ONC-001,EX,SYNTH-ONC-001-0141,9,FULVESTRANT,500,mg,INTRAMUSCULAR,ONCE,2021-11-08,2021-11-08
SYNTH-ONC-001,EX,SYNTH-ONC-001-0141,10,FULVESTRANT,500,mg,INTRAMUSCULAR,ONCE,2021-12-06,2021-12-06
SYNTH-ONC-001,EX,SYNTH-ONC-001-0141,11,FULVESTRANT,500,mg,INTRAMUSCULAR,ONCE,2022-01-03,2022-01-03
SYNTH-ONC-001,EX,SYNTH-ONC-001-0141,12,FULVESTRANT,500,mg,INTRAMUSCULAR,ONCE,2022-01-31,2022-01-31
SYNTH-ONC-001,EX,SYNTH-ONC-001-0141,13,FULVESTRANT,500,mg,INTRAMUSCULAR,ONCE,2022-02-28,2022-02-28
SYNTH-ONC-001,EX,SYNTH-ONC-001-0141,14,FULVESTRANT,500,mg,INTRAMUSCULAR,ONCE,2022-03-28,2022-03-28
SYNTH-ONC-001,EX,SYNTH-ONC-001-0141,15,FULVESTRANT,500,mg,INTRAMUSCULAR,ONCE,2022-04-25,2022-04-25
SYNTH-ONC-001,EX,SYNTH-ONC-001-0141,16,PLACEBO,10,mg,ORAL,QD,2021-04-26,2022-05-11
