STUDYID,DOMAIN,USUBJID,RSSEQ,RSTESTCD,RSTEST,RSSTRESC,RSDTC,VISITNUM,VISIT,RSDY
SYNTH-ONC-001,RS,SYNTH-ONC-001-0001,1,OVRLRESP,Overall Response,SD,2022-05-03,3,WEEK 12,85
SYNTH-ONC-001,RS,SYNTH-ONC-001-0001,2,OVRLRESP,Overall Response,PD,2022-07-26,4,WEEK 24,169
SYNTH-ONC-001,RS,SYNTH-ONC-001-0001,3,OVRLRESP,Overall Response,PD,2022-10-18,5,WEEK 36,253
SYNTH-ONC-001,RS,SYNTH-ONC-001-0001,4,OVRLRESP,Overall Response,PD,2023-01-10,6,WEEK 48,337
SYNTH-ONC-001,RS,SYNTH-ONC-001-0001,5,OVRLRESP,Overall Response,PD,2023-04-04,7,WEEK 60,421
SYNTH-ONC-001,RS,SYNTH-ONC-001-0003,6,OVRLRESP,Overall Response,SD,2021-08-03,3,WEEK 12,85
SYNTH-ONC-001,RS,SYNTH-ONC-001-0003,7,OVRLRESP,Overall Response,PR,2021-10-26,4,WEEK 24,169
SYNTH-ONC-001,RS,SYNTH-ONC-001-0003,8,OVRLRESP,Overall Response,PR,2022-01-18,5,WEEK 36,253
SYNTH-ONC-001,RS,SYNTH-ONC-001-0003,9,OVRLRESP,Overall Response,PR,2022-04-12,6,WEEK 48,337
SYNTH-ONC-001,RS,SYNTH-ONC-001-0003,10,OVRLRESP,Overall Response,PR,2022-07-05,7,WEEK 60,421
SYNTH-ONC-001,RS,SYNTH-ONC-001-0004,11,OVRLRESP,Overall Response,SD,2021-05-18,3,WEEK 12,85
SYNTH-ONC-001,RS,SYNTH-ONC-001-0005,12,OVRLRESP,Overall Response,SD,2023-02-08,3,WEEK 12,85
SYNTH-ONC-001,RS,SYNTH-ONC-001-0006,13,OVRLRESP,Overall Response,PD,2023-03-26,3,WEEK 12,85
SYNTH-ONC-001,RS,SYNTH-ONC-001-0007,14,OVRLRESP,Overall Response,SD,2023-01-27,3,WEEK 12,85
SYNTH-ONC-001,RS,SYNTH-ONC-001-0007,15,OVRLRESP,Overall Response,PD,2023-04-21,4,WEEK 24,169
SYNTH-ONC-001,RS,SYNTH-ONC-001-0007,16,OVRLRESP,Overall Response,PD,2023-07-14,5,WEEK 36,253
SYNTH-ONC-001,RS,SYNTH-ONC-001-0008,17,OVRLRESP,Overall Response,SD,2023-03-06,3,WEEK 12,85
SYNTH-ONC-001,RS,SYNTH-ONC-001-0008,18,OVRLRESP,Overall Response,PD,2023-05-29,4,WEEK 24,169
SYNTH-ONC-001,RS,SYNTH-ONC-001-0009,19,OVRLRESP,Overall Response,SD,2022-05-16,3,WEEK 12,85
SYNTH-ONC-001,RS,SYNTH-ONC-001-0009,20,OVRLRESP,Overall Response,SD,2022-08-08,4,WEEK 24,169
SYNTH-ONC-001,RS,SYNTH-ONC-001-0009,21,OVRLRESP,Overall Response,SD,2022-10-31,5,WEEK 36,253
SYNTH-ONC-001,RS,SYNTH-ONC-001-0009,22,OVRLRESP,Overall Response,SD,2023-01-23,6,WEEK 48,337
SYNTH-ONC-001,RS,SYNTH-ONC-001-0009,23,OVRLRESP,Overall Response,PD,2023-04-17,7,WEEK 60,421
SYNTH-ONC-001,RS,SYNTH-ONC-001-0009,24,OVRLRESP,Overall Response,PD,2023-07-10,8,WEEK 72,505
SYNTH-ONC-001,RS,SYNTH-ONC-001-0009,25,OVRLRESP,Overall Response,PD,2023-10-02,9,WEEK 84,589
SYNTH-ONC-001,RS,SYNTH-ONC-001-0009,26,OVRLRESP,Overall Response,SD,2023-12-25,10,WEEK 96,673
SYNTH-ONC-001,RS,SYNTH-ONC-001-0009,27,OVRLRESP,Overall Response,PD,2024-03-18,11,WEEK 108,757
SYNTH-ONC-001,RS,SYNTH-ONC-001-0010,28,OVRLRESP,Overall Response,SD,2021-11-28,3,WEEK 12,85
SYNTH-ONC-001,RS,SYNTH-ONC-001-0010,29,OVRLRESP,Overall Response,PD,2022-02-20,4,WEEK 24,169
SYNTH-ONC-001,RS,SYNTH-ONC-001-0011,30,OVRLRESP,Overall Response,SD,2022-06-08,3,WEEK 12,85
SYNTH-ONC-001,RS,SYNTH-ONC-001-0011,31,OVRLRESP,Overall Response,PR,2022-08-31,4,WEEK 24,169
SYNTH-ONC-001,RS,SYNTH-ONC-001-0011,32,OVRLRESP,Overall Response,PR,2022-11-23,5,WEEK 36,253
SYNTH-ONC-001,RS,SYNTH-ONC-001-0011,33,OVRLRESP,Overall Response,PR,2023-02-15,6,WEEK 48,337
SYNTH-ONC-001,RS,SYNTH-ONC-001-0011,34,OVRLRESP,Overall Response,PR,2023-05-10,7,WEEK 60,421
SYNTH-ONC-001,RS,SYNTH-ONC-001-0011,35,OVRLRESP,Overall Response,PR,2023-08-02,8,WEEK 72,505
SYNTH-ONC-001,RS,SYNTH-ONC-001-0011,36,OVRLRESP,Overall Response,PR,2023-10-25,9,WEEK 84,589
SYNTH-ONC-001,RS,SYNTH-ONC-001-0011,37,OVRLRESP,Overall Response,PR,2024-01-17,10,WEEK 96,673
SYNTH-ONC-001,RS,SYNTH-ONC-001-0011,38,OVRLRESP,Overall Response,PR,2024-04-10,11,WEEK 108,757
SYNTH-ONC-001,RS,SYNTH-ONC-001-0015,39,OVRLRESP,Overall Response,PR,2022-05-01,3,WEEK 12,85
SYNTH-ONC-001,RS,SYNTH-ONC-001-0017,40,OVRLRESP,Overall Response,SD,2021-12-31,3,WEEK 12,85
SYNTH-ONC-001,RS,SYNTH-ONC-001-0017,41,OVRLRESP,Overall Response,PR,2022-03-25,4,WEEK 24,169
SYNTH-ONC-001,RS,SYNTH-ONC-001-0017,42,OVRLRESP,Overall Response,PR,2022-06-17,5,WEEK 36,253
SYNTH-ONC-001,RS,SYNTH-ONC-001-0017,43,OVRLRESP,Overall Response,PR,2022-09-09,6,WEEK 48,337
SYNTH-ONC-001,RS,SYNTH-ONC-001-0017,44,OVRLRESP,Overall Response,PR,2022-12-02,7,WEEK 60,421
SYNTH-ONC-001,RS,SYNTH-ONC-001-0017,45,OVRLRESP,Overall Response,PR,2023-02-24,8,WEEK 72,505
SYNTH-ONC-001,RS,SYNTH-ONC-001-0017,46,OVRLRESP,Overall Response,PR,2023-05-19,9,WEEK 84,589
SYNTH-ONC-001,RS,SYNTH-ONC-001-0017,47,OVRLRESP,Overall Response,PR,2023-08-11,10,WEEK 96,673
SYNTH-ONC-001,RS,SYNTH-ONC-001-0017,48,OVRLRESP,Overall Response,PR,2023-11-03,11,WEEK 108,757
SYNTH-ONC-001,RS,SYNTH-ONC-001-0019,49,OVRLRESP,Overall Response,SD,2021-10-10,3,WEEK 12,85
SYNTH-ONC-001,RS,SYNTH-ONC-001-0020,50,OVRLRESP,Overall Response,SD,2022-08-19,3,WEEK 12,85
SYNTH-ONC-001,RS,SYNTH-ONC-001-0020,51,OVRLRESP,Overall Response,PD,2022-11-11,4,WEEK 24,169
SYNTH-ONC-001,RS,SYNTH-ONC-001-0020,52,OVRLRESP,Overall Response,PD,2023-02-03,5,WEEK 36,253
SYNTH-ONC-001,RS,SYNTH-ONC-001-0023,53,OVRLRESP,Overall Response,SD,2021-10-13,3,WEEK 12,85
SYNTH-ONC-001,RS,SYNTH-ONC-001-0023,54,OVRLRESP,Overall Response,SD,2022-01-05,4,WEEK 24,169
SYNTH-ONC-001,RS,SYNTH-ONC-001-0023,55,OVRLRESP,Overall Response,PD,2022-03-30,5,WEEK 36,253
SYNTH-ONC-001,RS,SYNTH-ONC-001-0023,56,OVRLRESP,Overall Response,PD,2022-06-22,6,WEEK 48,337
SYNTH-ONC-001,RS,SYNTH-ONC-001-0023,57,OVRLRESP,Overall Response,PD,2022-09-14,7,WEEK 60,421
SYNTH-ONC-001,RS,SYNTH-ONC-001-0024,58,OVRLRESP,Overall Response,PD,2021-07-28,3,WEEK 12,85
SYNTH-ONC-001,RS,SYNTH-ONC-001-0024,59,OVRLRESP,Overall Response,SD,2021-10-20,4,WEEK 24,169
SYNTH-ONC-001,RS,SYNTH-ONC-001-0024,60,OVRLRESP,Overall Response,SD,2022-01-12,5,WEEK 36,253
SYNTH-ONC-001,RS,SYNTH-ONC-001-0024,61,OVRLRESP,Overall Response,PD,2022-04-06,6,WEEK 48,337
SYNTH-ONC-001,RS,SYNTH-ONC-001-0024,62,OVRLRESP,Overall Response,PD,2022-06-29,7,WEEK 60,421
SYNTH-ONC-001,RS,SYNTH-ONC-001-0024,63,OVRLRESP,Overall Response,PD,2022-09-21,8,WEEK 72,505
SYNTH-ONC-001,RS,SYNTH-ONC-001-0024,64,OVRLRESP,Overall Response,PD,2022-12-14,9,WEEK 84,589
SYNTH-ONC-001,RS,SYNTH-ONC-001-0024,65,OVRLRESP,Overall Response,PD,2023-03-08,10,WEEK 96,673
SYNTH-ONC-001,RS,SYNTH-ONC-001-0024,66,OVRLRESP,Overall Response,PD,2023-05-31,11,WEEK 108,757
SYNTH-ONC-001,RS,SYNTH-ONC-001-0025,67,OVRLRESP,Overall Response,SD,2021-09-29,3,WEEK 12,85
SYNTH-ONC-001,RS,SYNTH-ONC-001-0025,68,OVRLRESP,Overall Response,PD,2021-12-22,4,WEEK 24,169
SYNTH-ONC-001,RS,SYNTH-ONC-001-0025,69,OVRLRESP,Overall Response,PD,2022-03-16,5,WEEK 36,253
SYNTH-ONC-001,RS,SYNTH-ONC-001-0025,70,OVRLRESP,Overall Response,PD,2022-06-08,6,WEEK 48,337
SYNTH-ONC-001,RS,SYNTH-ONC-001-0025,71,OVRLRESP,Overall Response,PD,2022-08-31,7,WEEK 60,421
SYNTH-ONC-001,RS,SYNTH-ONC-001-0025,72,OVRLRESP,Overall Response,PD,2022-11-23,8,WEEK 72,505
SYNTH-ONC-001,RS,SYNTH-ONC-001-0025,73,OVRLRESP,Overall Response,PD,2023-02-15,9,WEEK 84,589
SYNTH-ONC-001,RS,SYNTH-ONC-001-0025,74,OVRLRESP,Overall Response,PD,2023-05-10,10,WEEK 96,673
SYNTH-ONC-001,RS,SYNTH-ONC-001-0025,75,OVRLRESP,Overall Response,PD,2023-08-02,11,WEEK 108,757
SYNTH-ONC-001,RS,SYNTH-ONC-001-0027,76,OVRLRESP,Overall Response,SD,2022-07-03,3,WEEK 12,85
SYNTH-ONC-001,RS,SYNTH-ONC-001-0027,77,OVRLRESP,Overall Response,SD,2022-09-25,4,WEEK 24,169
SYNTH-ONC-001,RS,SYNTH-ONC-001-0027,78,OVRLRESP,Overall Response,SD,2022-12-18,5,WEEK 36,253
SYNTH-ONC-001,RS,SYNTH-ONC-001-0027,79,OVRLRESP,Overall Response,SD,2023-03-12,6,WEEK 48,337
SYNTH-ONC-001,RS,SYNTH-ONC-001-0027,80,OVRLRESP,Overall Response,PR,2023-06-04,7,WEEK 60,421
SYNTH-ONC-001,RS,SYNTH-ONC-001-0027,81,OVRLRESP,Overall Response,PR,2023-08-27,8,WEEK 72,505
SYNTH-ONC-001,RS,SYNTH-ONC-001-0029,82,OVRLRESP,Overall Response,SD,2023-01-15,3,WEEK 12,85
SYNTH-ONC-001,RS,SYNTH-ONC-001-0029,83,OVRLRESP,Overall Response,SD,2023-04-09,4,WEEK 24,169
SYNTH-ONC-001,RS,SYNTH-ONC-001-0029,84,OVRLRESP,Overall Response,SD,2023-07-02,5,WEEK 36,253
SYNTH-ONC-001,RS,SYNTH-ONC-001-0029,85,OVRLRESP,Overall Response,SD,2023-09-24,6,WEEK 48,337
SYNTH-ONC-001,RS,SYNTH-ONC-001-0029,86,OVRLRESP,Overall Response,SD,2023-12-17,7,WEEK 60,421
SYNTH-ONC-001,RS,SYNTH-ONC-001-0029,87,OVRLRESP,Overall Response,SD,2024-03-10,8,WEEK 72,505
SYNTH-ONC-001,RS,SYNTH-ONC-001-0029,88,OVRLRESP,Overall Response,SD,2024-06-02,9,WEEK 84,589
SYNTH-ONC-001,RS,SYNTH-ONC-001-0029,89,OVRLRESP,Overall Response,SD,2024-08-25,10,WEEK 96,673
SYNTH-ONC-001,RS,SYNTH-ONC-001-0029,90,OVRLRESP,Overall Response,SD,2024-11-17,11,WEEK 108,757
SYNTH-ONC-001,RS,SYNTH-ONC-001-0030,91,OVRLRESP,Overall Response,SD,2022-05-03,3,WEEK 12,85
SYNTH-ONC-001,RS,SYNTH-ONC-001-0030,92,OVRLRESP,Overall Response,SD,2022-07-26,4,WEEK 24,169
SYNTH-ONC-001,RS,SYNTH-ONC-001-0030,93,OVRLRESP,Overall Response,PD,2022-10-18,5,WEEK 36,253
SYNTH-ONC-001,RS,SYNTH-ONC-001-0030,94,OVRLRESP,Overall Response,PD,2023-01-10,6,WEEK 48,337
SYNTH-ONC-001,RS,SYNTH-ONC-001-0031,95,OVRLRESP,Overall Response,SD,2022-03-07,3,WEEK 12,85
SYNTH-ONC-001,RS,SYNTH-ONC-001-0032,96,OVRLRESP,Overall Response,PD,2022-08-19,3,WEEK 12,85
SYNTH-ONC-001,RS,SYNTH-ONC-001-0032,97,OVRLRESP,Overall Response,PD,2022-11-11,4,WEEK 24,169
SYNTH-ONC-001,RS,SYNTH-ONC-001-0033,98,OVRLRESP,Overall Response,SD,2021-08-20,3,WEEK 12,85
SYNTH-ONC-001,RS,SYNTH-ONC-001-0033,99,OVRLRESP,Overall Response,SD,2021-11-12,4,WEEK 24,169
SYNTH-ONC-001,RS,SYNTH-ONC-001-0034,100,OVRLRESP,Overall Response,PD,2021-08-21,3,WEEK 12,85
SYNTH-ONC-001,RS,SYNTH-ONC-001-0034,101,OVRLRESP,Overall Response,PD,2021-11-13,4,WEEK 24,169
SYNTH-ONC-001,RS,SYNTH-ONC-001-0034,102,OVRLRESP,Overall Response,PD,2022-02-05,5,WEEK 36,253
SYNTH-ONC-001,RS,SYNTH-ONC-001-0034,103,OVRLRESP,Overall Response,PD,2022-04-30,6,WEEK 48,337
SYNTH-ONC-001,RS,SYNTH-ONC-001-0034,104,OVRLRESP,Overall Response,PD,2022-07-23,7,WEEK 60,421
SYNTH-ONC-001,RS,SYNTH-ONC-001-0034,105,OVRLRESP,Overall Response,PD,2022-10-15,8,WEEK 72,505
SYNTH-ONC-001,RS,SYNTH-ONC-001-0034,106,OVRLRESP,Overall Response,PD,2023-01-07,9,WEEK 84,589
SYNTH-ONC-001,RS,SYNTH-ONC-001-0035,107,OVRLRESP,Overall Response,SD,2023-03-07,3,WEEK 12,85
SYNTH-ONC-001,RS,SYNTH-ONC-001-0035,108,OVRLRESP,Overall Response,SD,2023-05-30,4,WEEK 24,169
SYNTH-ONC-001,RS,SYNTH-ONC-001-0036,109,OVRLRESP,Overall Response,SD,2022-07-28,3,WEEK 12,85
SYNTH-ONC-001,RS,SYNTH-ONC-001-0038,110,OVRLRESP,Overall Response,SD,2022-09-28,3,WEEK 12,85
SYNTH-ONC-001,RS,SYNTH-ONC-001-0038,111,OVRLRESP,Overall Response,SD,2022-12-21,4,WEEK 24,169
SYNTH-ONC-001,RS,SYNTH-ONC-001-0038,112,OVRLRESP,Overall Response,PD,2023-03-15,5,WEEK 36,253
SYNTH-ONC-001,RS,SYNTH-ONC-001-0039,113,OVRLRESP,Overall Response,SD,2022-02-27,3,WEEK 12,85
SYNTH-ONC-001,RS,SYNTH-ONC-001-0040,114,OVRLRESP,Overall Response,PD,2022-12-27,3,WEEK 12,85
SYNTH-ONC-001,RS,SYNTH-ONC-001-0040,115,OVRLRESP,Overall Response,SD,2023-03-21,4,WEEK 24,169
SYNTH-ONC-001,RS,SYNTH-ONC-001-0040,116,OVRLRESP,Overall Response,PD,2023-06-13,5,WEEK 36,253
SYNTH-ONC-001,RS,SYNTH-ONC-001-0040,117,OVRLRESP,Overall Response,PD,2023-09-05,6,WEEK 48,337
SYNTH-ONC-001,RS,SYNTH-ONC-001-0040,118,OVRLRESP,Overall Response,PD,2023-11-28,7,WEEK 60,421
SYNTH-ONC-001,RS,SYNTH-ONC-001-0040,119,OVRLRESP,Overall Response,PD,2024-02-20,8,WEEK 72,505
SYNTH-ONC-001,RS,SYNTH-ONC-001-0040,120,OVRLRESP,Overall Response,PD,2024-05-14,9,WEEK 84,589
SYNTH-ONC-001,RS,SYNTH-ONC-001-0040,121,OVRLRESP,Overall Response,PD,2024-08-06,10,WEEK 96,673
SYNTH-ONC-001,RS,SYNTH-ONC-001-0040,122,OVRLRESP,Overall Response,PD,2024-10-29,11,WEEK 108,757
SYNTH-ONC-001,RS,SYNTH-ONC-001-0041,123,OVRLRESP,Overall Response,PD,2022-07-12,3,WEEK 12,85
SYNTH-ONC-001,RS,SYNTH-ONC-001-0041,124,OVRLRESP,Overall Response,SD,2022-10-04,4,WEEK 24,169
SYNTH-ONC-001,RS,SYNTH-ONC-001-0041,125,OVRLRESP,Overall Response,PD,2022-12-27,5,WEEK 36,253
SYNTH-ONC-001,RS,SYNTH-ONC-001-0041,126,OVRLRESP,Overall Response,PD,2023-03-21,6,WEEK 48,337
SYNTH-ONC-001,RS,SYNTH-ONC-001-0041,127,OVRLRESP,Overall Response,PD,2023-06-13,7,WEEK 60,421
SYNTH-ONC-001,RS,SYNTH-ONC-001-0041,128,OVRLRESP,Overall Response,PD,2023-09-05,8,WEEK 72,505
SYNTH-ONC-001,RS,SYNTH-ONC-001-0041,129,OVRLRESP,Overall Response,PD,2023-11-28,9,WEEK 84,589
SYNTH-ONC-001,RS,SYNTH-ONC-001-0041,130,OVRLRESP,Overall Response,PD,2024-02-20,10,WEEK 96,673
SYNTH-ONC-001,RS,SYNTH-ONC-001-0041,131,OVRLRESP,Overall Response,PD,2024-05-14,11,WEEK 108,757
SYNTH-ONC-001,RS,SYNTH-ONC-001-0043,132,OVRLRESP,Overall Response,PD,2022-05-15,3,WEEK 12,85
SYNTH-ONC-001,RS,SYNTH-ONC-001-0043,133,OVRLRESP,Overall Response,PD,2022-08-07,4,WEEK 24,169
SYNTH-ONC-001,RS,SYNTH-ONC-001-0043,134,OVRLRESP,Overall Response,PD,2022-10-30,5,WEEK 36,253
SYNTH-ONC-001,RS,SYNTH-ONC-001-0044,135,OVRLRESP,Overall Response,SD,2022-01-18,3,WEEK 12,85
SYNTH-ONC-001,RS,SYNTH-ONC-001-0044,136,OVRLRESP,Overall Response,SD,2022-04-12,4,WEEK 24,169
SYNTH-ONC-001,RS,SYNTH-ONC-001-0044,137,OVRLRESP,Overall Response,SD,2022-07-05,5,WEEK 36,253
SYNTH-ONC-001,RS,SYNTH-ONC-001-0044,138,OVRLRESP,Overall Response,SD,2022-09-27,6,WEEK 48,337
SYNTH-ONC-001,RS,SYNTH-ONC-001-0044,139,OVRLRESP,Overall Response,PD,2022-12-20,7,WEEK 60,421
SYNTH-ONC-001,RS,SYNTH-ONC-001-0044,140,OVRLRESP,Overall Response,PD,2023-03-14,8,WEEK 72,505
SYNTH-ONC-001,RS,SYNTH-ONC-001-0044,141,OVRLRESP,Overall Response,PD,2023-06-06,9,WEEK 84,589
SYNTH-ONC-001,RS,SYNTH-ONC-001-0044,142,OVRLRESP,Overall Response,PD,2023-08-29,10,WEEK 96,673
SYNTH-ONC-001,RS,SYNTH-ONC-001-0044,143,OVRLRESP,Overall Response,PD,2023-11-21,11,WEEK 108,757
SYNTH-ONC-001,RS,SYNTH-ONC-001-0045,144,OVRLRESP,Overall Response,PD,2022-11-27,3,WEEK 12,85
SYNTH-ONC-001,RS,SYNTH-ONC-001-0045,145,OVRLRESP,Overall Response,PD,2023-02-19,4,WEEK 24,169
SYNTH-ONC-001,RS,SYNTH-ONC-001-0045,146,OVRLRESP,Overall Response,SD,2023-05-14,5,WEEK 36,253
SYNTH-ONC-001,RS,SYNTH-ONC-001-0046,147,OVRLRESP,Overall Response,SD,2021-12-14,3,WEEK 12,85
SYNTH-ONC-001,RS,SYNTH-ONC-001-0046,148,OVRLRESP,Overall Response,SD,2022-03-08,4,WEEK 24,169
SYNTH-ONC-001,RS,SYNTH-ONC-001-0046,149,OVRLRESP,Overall Response,PR,2022-05-31,5,WEEK 36,253
SYNTH-ONC-001,RS,SYNTH-ONC-001-0047,150,OVRLRESP,Overall Response,SD,2021-08-17,3,WEEK 12,85
SYNTH-ONC-001,RS,SYNTH-ONC-001-0047,151,OVRLRESP,Overall Response,PR,2021-11-09,4,WEEK 24,169
SYNTH-ONC-001,RS,SYNTH-ONC-001-0047,152,OVRLRESP,Overall Response,PR,2022-02-01,5,WEEK 36,253
SYNTH-ONC-001,RS,SYNTH-ONC-001-0047,153,OVRLRESP,Overall Response,PR,2022-04-26,6,WEEK 48,337
SYNTH-ONC-001,RS,SYNTH-ONC-001-0047,154,OVRLRESP,Overall Response,PR,2022-07-19,7,WEEK 60,421
SYNTH-ONC-001,RS,SYNTH-ONC-001-0047,155,OVRLRESP,Overall Response,PR,2022-10-11,8,WEEK 72,505
SYNTH-ONC-001,RS,SYNTH-ONC-001-0047,156,OVRLRESP,Overall Response,PR,2023-01-03,9,WEEK 84,589
SYNTH-ONC-001,RS,SYNTH-ONC-001-0047,157,OVRLRESP,Overall Response,PR,2023-03-28,10,WEEK 96,673
SYNTH-ONC-001,RS,SYNTH-ONC-001-0047,158,OVRLRESP,Overall Response,PR,2023-06-20,11,WEEK 108,757
SYNTH-ONC-001,RS,SYNTH-ONC-001-0048,159,OVRLRESP,Overall Response,SD,2022-03-07,3,WEEK 12,85
SYNTH-ONC-001,RS,SYNTH-ONC-001-0049,160,OVRLRESP,Overall Response,PD,2022-12-10,3,WEEK 12,85
SYNTH-ONC-001,RS,SYNTH-ONC-001-0049,161,OVRLRESP,Overall Response,PD,2023-03-04,4,WEEK 24,169
SYNTH-ONC-001,RS,SYNTH-ONC-001-0049,162,OVRLRESP,Overall Response,PD,2023-05-27,5,WEEK 36,253
SYNTH-ONC-001,RS,SYNTH-ONC-001-0050,163,OVRLRESP,Overall Response,SD,2022-10-19,3,WEEK 12,85
SYNTH-ONC-001,RS,SYNTH-ONC-001-0050,164,OVRLRESP,Overall Response,SD,2023-01-11,4,WEEK 24,169
SYNTH-ONC-001,RS,SYNTH-ONC-001-0050,165,OVRLRESP,Overall Response,PD,2023-04-05,5,WEEK 36,253
SYNTH-ONC-001,RS,SYNTH-ONC-001-0050,166,OVRLRESP,Overall Response,PD,2023-06-28,6,WEEK 48,337
SYNTH-ONC-001,RS,SYNTH-ONC-001-0050,167,OVRLRESP,Overall Response,SD,2023-09-20,7,WEEK 60,421
SYNTH-ONC-001,RS,SYNTH-ONC-001-0050,168,OVRLRESP,Overall Response,PD,2023-12-13,8,WEEK 72,505
SYNTH-ONC-001,RS,SYNTH-ONC-001-0050,169,OVRLRESP,Overall Response,PD,2024-03-06,9,WEEK 84,589
SYNTH-ONC-001,RS,SYNTH-ONC-001-0050,170,OVRLRESP,Overall Response,PD,2024-05-29,10,WEEK 96,673
SYNTH-ONC-001,RS,SYNTH-ONC-001-0051,171,OVRLRESP,Overall Response,SD,2021-03-28,3,WEEK 12,85
SYNTH-ONC-001,RS,SYNTH-ONC-001-0051,172,OVRLRESP,Overall Response,SD,2021-06-20,4,WEEK 24,169
SYNTH-ONC-001,RS,SYNTH-ONC-001-0051,173,OVRLRESP,Overall Response,SD,2021-09-12,5,WEEK 36,253
SYNTH-ONC-001,RS,SYNTH-ONC-001-0051,174,OVRLRESP,Overall Response,PD,2021-12-05,6,WEEK 48,337
SYNTH-ONC-001,RS,SYNTH-ONC-001-0051,175,OVRLRESP,Overall Response,SD,2022-02-27,7,WEEK 60,421
SYNTH-ONC-001,RS,SYNTH-ONC-001-0052,176,OVRLRESP,Overall Response,SD,2022-01-24,3,WEEK 12,85
SYNTH-ONC-001,RS,SYNTH-ONC-001-0052,177,OVRLRESP,Overall Response,PD,2022-04-18,4,WEEK 24,169
SYNTH-ONC-001,RS,SYNTH-ONC-001-0052,178,OVRLRESP,Overall Response,PD,2022-07-11,5,WEEK 36,253
SYNTH-ONC-001,RS,SYNTH-ONC-001-0052,179,OVRLRESP,Overall Response,SD,2022-10-03,6,WEEK 48,337
SYNTH-ONC-001,RS,SYNTH-ONC-001-0053,180,OVRLRESP,Overall Response,SD,2021-12-05,3,WEEK 12,85
SYNTH-ONC-001,RS,SYNTH-ONC-001-0053,181,OVRLRESP,Overall Response,PD,2022-02-27,4,WEEK 24,169
SYNTH-ONC-001,RS,SYNTH-ONC-001-0053,182,OVRLRESP,Overall Response,SD,2022-05-22,5,WEEK 36,253
SYNTH-ONC-001,RS,SYNTH-ONC-001-0053,183,OVRLRESP,Overall Response,SD,2022-08-14,6,WEEK 48,337
SYNTH-ONC-001,RS,SYNTH-ONC-001-0053,184,OVRLRESP,Overall Response,SD,2022-11-06,7,WEEK 60,421
SYNTH-ONC-001,RS,SYNTH-ONC-001-0053,185,OVRLRESP,Overall Response,SD,2023-01-29,8,WEEK 72,505
SYNTH-ONC-001,RS,SYNTH-ONC-001-0053,186,OVRLRESP,Overall Response,SD,2023-04-23,9,WEEK 84,589
SYNTH-ONC-001,RS,SYNTH-ONC-001-0054,187,OVRLRESP,Overall Response,SD,2023-01-07,3,WEEK 12,85
SYNTH-ONC-001,RS,SYNTH-ONC-001-0055,188,OVRLRESP,Overall Response,SD,2022-06-22,3,WEEK 12,85
SYNTH-ONC-001,RS,SYNTH-ONC-001-0055,189,OVRLRESP,Overall Response,SD,2022-09-14,4,WEEK 24,169
SYNTH-ONC-001,RS,SYNTH-ONC-001-0055,190,OVRLRESP,Overall Response,PD,2022-12-07,5,WEEK 36,253
SYNTH-ONC-001,RS,SYNTH-ONC-001-0055,191,OVRLRESP,Overall Response,SD,2023-03-01,6,WEEK 48,337
SYNTH-ONC-001,RS,SYNTH-ONC-001-0055,192,OVRLRESP,Overall Response,PD,2023-05-24,7,WEEK 60,421
SYNTH-ONC-001,RS,SYNTH-ONC-001-0055,193,OVRLRESP,Overall Response,PD,2023-08-16,8,WEEK 72,505
SYNTH-ONC-001,RS,SYNTH-ONC-001-0055,194,OVRLRESP,Overall Response,PD,2023-11-08,9,WEEK 84,589
SYNTH-ONC-001,RS,SYNTH-ONC-001-0055,195,OVRLRESP,Overall Response,PD,2024-01-31,10,WEEK 96,673
SYNTH-ONC-001,RS,SYNTH-ONC-001-0056,196,OVRLRESP,Overall Response,SD,2021-05-02,3,WEEK 12,85
SYNTH-ONC-001,RS,SYNTH-ONC-001-0056,197,OVRLRESP,Overall Response,SD,2021-07-25,4,WEEK 24,169
SYNTH-ONC-001,RS,SYNTH-ONC-001-0056,198,OVRLRESP,Overall Response,SD,2021-10-17,5,WEEK 36,253
SYNTH-ONC-001,RS,SYNTH-ONC-001-0058,199,OVRLRESP,Overall Response,SD,2021-04-04,3,WEEK 12,85
SYNTH-ONC-001,RS,SYNTH-ONC-001-0058,200,OVRLRESP,Overall Response,SD,2021-06-27,4,WEEK 24,169
SYNTH-ONC-001,RS,SYNTH-ONC-001-0058,201,OVRLRESP,Overall Response,SD,2021-09-19,5,WEEK 36,253
SYNTH-ONC-001,RS,SYNTH-ONC-001-0058,202,OVRLRESP,Overall Response,SD,2021-12-12,6,WEEK 48,337
SYNTH-ONC-001,RS,SYNTH-ONC-001-0058,203,OVRLRESP,Overall Response,SD,2022-03-06,7,WEEK 60,421
SYNTH-ONC-001,RS,SYNTH-ONC-001-0061,204,OVRLRESP,Overall Response,SD,2023-01-14,3,WEEK 12,85
SYNTH-ONC-001,RS,SYNTH-ONC-001-0061,205,OVRLRESP,Overall Response,SD,2023-04-08,4,WEEK 24,169
SYNTH-ONC-001,RS,SYNTH-ONC-001-0062,206,OVRLRESP,Overall Response,SD,2021-10-20,3,WEEK 12,85
SYNTH-ONC-001,RS,SYNTH-ONC-001-0062,207,OVRLRESP,Overall Response,SD,2022-01-12,4,WEEK 24,169
SYNTH-ONC-001,RS,SYNTH-ONC-001-0062,208,OVRLRESP,Overall Response,SD,2022-04-06,5,WEEK 36,253
SYNTH-ONC-001,RS,SYNTH-ONC-001-0062,209,OVRLRESP,Overall Response,SD,2022-06-29,6,WEEK 48,337
SYNTH-ONC-001,RS,SYNTH-ONC-001-0062,210,OVRLRESP,Overall Response,SD,2022-09-21,7,WEEK 60,421
SYNTH-ONC-001,RS,SYNTH-ONC-001-0062,211,OVRLRESP,Overall Response,SD,2022-12-14,8,WEEK 72,505
SYNTH-ONC-001,RS,SYNTH-ONC-001-0062,212,OVRLRESP,Overall Response,PR,2023-03-08,9,WEEK 84,589
SYNTH-ONC-001,RS,SYNTH-ONC-001-0063,213,OVRLRESP,Overall Response,SD,2021-08-04,3,WEEK 12,85
SYNTH-ONC-001,RS,SYNTH-ONC-001-0063,214,OVRLRESP,Overall Response,SD,2021-10-27,4,WEEK 24,169
SYNTH-ONC-001,RS,SYNTH-ONC-001-0065,215,OVRLRESP,Overall Response,SD,2021-08-25,3,WEEK 12,85
SYNTH-ONC-001,RS,SYNTH-ONC-001-0066,216,OVRLRESP,Overall Response,SD,2021-05-19,3,WEEK 12,85
SYNTH-ONC-001,RS,SYNTH-ONC-001-0066,217,OVRLRESP,Overall Response,SD,2021-08-11,4,WEEK 24,169
SYNTH-ONC-001,RS,SYNTH-ONC-001-0067,218,OVRLRESP,Overall Response,SD,2021-07-24,3,WEEK 12,85
SYNTH-ONC-001,RS,SYNTH-ONC-001-0067,219,OVRLRESP,Overall Response,SD,2021-10-16,4,WEEK 24,169
SYNTH-ONC-001,RS,SYNTH-ONC-001-0067,220,OVRLRESP,Overall Response,PD,2022-01-08,5,WEEK 36,253
SYNTH-ONC-001,RS,SYNTH-ONC-001-0067,221,OVRLRESP,Overall Response,PD,2022-04-02,6,WEEK 48,337
SYNTH-ONC-001,RS,SYNTH-ONC-001-0067,222,OVRLRESP,Overall Response,PD,2022-06-25,7,WEEK 60,421
SYNTH-ONC-001,RS,SYNTH-ONC-001-0067,223,OVRLRESP,Overall Response,PD,2022-09-17,8,WEEK 72,505
SYNTH-ONC-001,RS,SYNTH-ONC-001-0067,224,OVRLRESP,Overall Response,PD,2022-12-10,9,WEEK 84,589
SYNTH-ONC-001,RS,SYNTH-ONC-001-0068,225,OVRLRESP,Overall Response,SD,2023-01-28,3,WEEK 12,85
SYNTH-ONC-001,RS,SYNTH-ONC-001-0069,226,OVRLRESP,Overall Response,SD,2022-12-14,3,WEEK 12,85
SYNTH-ONC-001,RS,SYNTH-ONC-001-0069,227,OVRLRESP,Overall Response,PR,2023-03-08,4,WEEK 24,169
SYNTH-ONC-001,RS,SYNTH-ONC-001-0069,228,OVRLRESP,Overall Response,PR,2023-05-31,5,WEEK 36,253
SYNTH-ONC-001,RS,SYNTH-ONC-001-0069,229,OVRLRESP,Overall Response,PR,2023-08-23,6,WEEK 48,337
SYNTH-ONC-001,RS,SYNTH-ONC-001-0069,230,OVRLRESP,Overall Response,PR,2023-11-15,7,WEEK 60,421
SYNTH-ONC-001,RS,SYNTH-ONC-001-0069,231,OVRLRESP,Overall Response,PR,2024-02-07,8,WEEK 72,505
SYNTH-ONC-001,RS,SYNTH-ONC-001-0069,232,OVRLRESP,Overall Response,PR,2024-05-01,9,WEEK 84,589
SYNTH-ONC-001,RS,SYNTH-ONC-001-0069,233,OVRLRESP,Overall Response,PR,2024-07-24,10,WEEK 96,673
SYNTH-ONC-001,RS,SYNTH-ONC-001-0069,234,OVRLRESP,Overall Response,PR,2024-10-16,11,WEEK 108,757
SYNTH-ONC-001,RS,SYNTH-ONC-001-0070,235,OVRLRESP,Overall Response,SD,2022-11-03,3,WEEK 12,85
SYNTH-ONC-001,RS,SYNTH-ONC-001-0070,236,OVRLRESP,Overall Response,PR,2023-01-26,4,WEEK 24,169
SYNTH-ONC-001,RS,SYNTH-ONC-001-0070,237,OVRLRESP,Overall Response,PR,2023-04-20,5,WEEK 36,253
SYNTH-ONC-001,RS,SYNTH-ONC-001-0071,238,OVRLRESP,Overall Response,SD,2022-12-11,3,WEEK 12,85
SYNTH-ONC-001,RS,SYNTH-ONC-001-0071,239,OVRLRESP,Overall Response,SD,2023-03-05,4,WEEK 24,169
SYNTH-ONC-001,RS,SYNTH-ONC-001-0072,240,OVRLRESP,Overall Response,SD,2022-05-20,3,WEEK 12,85
SYNTH-ONC-001,RS,SYNTH-ONC-001-0072,241,OVRLRESP,Overall Response,SD,2022-08-12,4,WEEK 24,169
SYNTH-ONC-001,RS,SYNTH-ONC-001-0073,242,OVRLRESP,Overall Response,PR,2022-05-22,3,WEEK 12,85
SYNTH-ONC-001,RS,SYNTH-ONC-001-0073,243,OVRLRESP,Overall Response,PR,2022-08-14,4,WEEK 24,169
SYNTH-ONC-001,RS,SYNTH-ONC-001-0073,244,OVRLRESP,Overall Response,PR,2022-11-06,5,WEEK 36,253
SYNTH-ONC-001,RS,SYNTH-ONC-001-0073,245,OVRLRESP,Overall Response,PR,2023-01-29,6,WEEK 48,337
SYNTH-ONC-001,RS,SYNTH-ONC-001-0073,246,OVRLRESP,Overall Response,PR,2023-04-23,7,WEEK 60,421
SYNTH-ONC-001,RS,SYNTH-ONC-001-0073,247,OVRLRESP,Overall Response,PR,2023-07-16,8,WEEK 72,505
SYNTH-ONC-001,RS,SYNTH-ONC-001-0073,248,OVRLRESP,Overall Response,PR,2023-10-08,9,WEEK 84,589
SYNTH-ONC-001,RS,SYNTH-ONC-001-0074,249,OVRLRESP,Overall Response,SD,2021-07-08,3,WEEK 12,85
SYNTH-ONC-001,RS,SYNTH-ONC-001-0075,250,OVRLRESP,Overall Response,SD,2021-12-05,3,WEEK 12,85
SYNTH-ONC-001,RS,SYNTH-ONC-001-0075,251,OVRLRESP,Overall Response,PD,2022-02-27,4,WEEK 24,169
SYNTH-ONC-001,RS,SYNTH-ONC-001-0075,252,OVRLRESP,Overall Response,PD,2022-05-22,5,WEEK 36,253
SYNTH-ONC-001,RS,SYNTH-ONC-001-0075,253,OVRLRESP,Overall Response,PD,2022-08-14,6,WEEK 48,337
SYNTH-ONC-001,RS,SYNTH-ONC-001-0076,254,OVRLRESP,Overall Response,PR,2021-11-08,3,WEEK 12,85
SYNTH-ONC-001,RS,SYNTH-ONC-001-0076,255,OVRLRESP,Overall Response,PR,2022-01-31,4,WEEK 24,169
SYNTH-ONC-001,RS,SYNTH-ONC-001-0076,256,OVRLRESP,Overall Response,PR,2022-04-25,5,WEEK 36,253
SYNTH-ONC-001,RS,SYNTH-ONC-001-0076,257,OVRLRESP,Overall Response,PR,2022-07-18,6,WEEK 48,337
SYNTH-ONC-001,RS,SYNTH-ONC-001-0076,258,OVRLRESP,Overall Response,PR,2022-10-10,7,WEEK 60,421
SYNTH-ONC-001,RS,SYNTH-ONC-001-0076,259,OVRLRESP,Overall Response,PR,2023-01-02,8,WEEK 72,505
SYNTH-ONC-001,RS,SYNTH-ONC-001-0076,260,OVRLRESP,Overall Response,PR,2023-03-27,9,WEEK 84,589
SYNTH-ONC-001,RS,SYNTH-ONC-001-0076,261,OVRLRESP,Overall Response,PR,2023-06-19,10,WEEK 96,673
SYNTH-ONC-001,RS,SYNTH-ONC-001-0076,262,OVRLRESP,Overall Response,PR,2023-09-11,11,WEEK 108,757
SYNTH-ONC-001,RS,SYNTH-ONC-001-0077,263,OVRLRESP,Overall Response,PR,2021-07-16,3,WEEK 12,85
SYNTH-ONC-001,RS,SYNTH-ONC-001-0077,264,OVRLRESP,Overall Response,PR,2021-10-08,4,WEEK 24,169
SYNTH-ONC-001,RS,SYNTH-ONC-001-0078,265,OVRLRESP,Overall Response,SD,2022-08-18,3,WEEK 12,85
SYNTH-ONC-001,RS,SYNTH-ONC-001-0079,266,OVRLRESP,Overall Response,SD,2022-07-12,3,WEEK 12,85
SYNTH-ONC-001,RS,SYNTH-ONC-001-0082,267,OVRLRESP,Overall Response,SD,2022-02-27,3,WEEK 12,85
SYNTH-ONC-001,RS,SYNTH-ONC-001-0082,268,OVRLRESP,Overall Response,SD,2022-05-22,4,WEEK 24,169
SYNTH-ONC-001,RS,SYNTH-ONC-001-0082,269,OVRLRESP,Overall Response,PR,2022-08-14,5,WEEK 36,253
SYNTH-ONC-001,RS,SYNTH-ONC-001-0082,270,OVRLRESP,Overall Response,PR,2022-11-06,6,WEEK 48,337
SYNTH-ONC-001,RS,SYNTH-ONC-001-0082,271,OVRLRESP,Overall Response,PR,2023-01-29,7,WEEK 60,421
SYNTH-ONC-001,RS,SYNTH-ONC-001-0082,272,OVRLRESP,Overall Response,PR,2023-04-23,8,WEEK 72,505
SYNTH-ONC-001,RS,SYNTH-ONC-001-0082,273,OVRLRESP,Overall Response,SD,2023-07-16,9,WEEK 84,589
SYNTH-ONC-001,RS,SYNTH-ONC-001-0082,274,OVRLRESP,Overall Response,PR,2023-10-08,10,WEEK 96,673
SYNTH-ONC-001,RS,SYNTH-ONC-001-0082,275,OVRLRESP,Overall Response,SD,2023-12-31,11,WEEK 108,757
SYNTH-ONC-001,RS,SYNTH-ONC-001-0083,276,OVRLRESP,Overall Response,SD,2023-03-02,3,WEEK 12,85
SYNTH-ONC-001,RS,SYNTH-ONC-001-0083,277,OVRLRESP,Overall Response,PR,2023-05-25,4,WEEK 24,169
SYNTH-ONC-001,RS,SYNTH-ONC-001-0083,278,OVRLRESP,Overall Response,PR,2023-08-17,5,WEEK 36,253
SYNTH-ONC-001,RS,SYNTH-ONC-001-0084,279,OVRLRESP,Overall Response,SD,2021-09-05,3,WEEK 12,85
SYNTH-ONC-001,RS,SYNTH-ONC-001-0084,280,OVRLRESP,Overall Response,SD,2021-11-28,4,WEEK 24,169
SYNTH-ONC-001,RS,SYNTH-ONC-001-0084,281,OVRLRESP,Overall Response,PD,2022-02-20,5,WEEK 36,253
SYNTH-ONC-001,RS,SYNTH-ONC-001-0084,282,OVRLRESP,Overall Response,PD,2022-05-15,6,WEEK 48,337
SYNTH-ONC-001,RS,SYNTH-ONC-001-0084,283,OVRLRESP,Overall Response,PD,2022-08-07,7,WEEK 60,421
SYNTH-ONC-001,RS,SYNTH-ONC-001-0084,284,OVRLRESP,Overall Response,SD,2022-10-30,8,WEEK 72,505
SYNTH-ONC-001,RS,SYNTH-ONC-001-0084,285,OVRLRESP,Overall Response,PD,2023-01-22,9,WEEK 84,589
SYNTH-ONC-001,RS,SYNTH-ONC-001-0084,286,OVRLRESP,Overall Response,PD,2023-04-16,10,WEEK 96,673
SYNTH-ONC-001,RS,SYNTH-ONC-001-0084,287,OVRLRESP,Overall Response,SD,2023-07-09,11,WEEK 108,757
SYNTH-ONC-001,RS,SYNTH-ONC-001-0085,288,OVRLRESP,Overall Response,SD,2023-03-16,3,WEEK 12,85
SYNTH-ONC-001,RS,SYNTH-ONC-001-0085,289,OVRLRESP,Overall Response,SD,2023-06-08,4,WEEK 24,169
SYNTH-ONC-001,RS,SYNTH-ONC-001-0085,290,OVRLRESP,Overall Response,SD,2023-08-31,5,WEEK 36,253
SYNTH-ONC-001,RS,SYNTH-ONC-001-0086,291,OVRLRESP,Overall Response,SD,2023-02-05,3,WEEK 12,85
SYNTH-ONC-001,RS,SYNTH-ONC-001-0086,292,OVRLRESP,Overall Response,SD,2023-04-30,4,WEEK 24,169
SYNTH-ONC-001,RS,SYNTH-ONC-001-0086,293,OVRLRESP,Overall Response,PD,2023-07-23,5,WEEK 36,253
SYNTH-ONC-001,RS,SYNTH-ONC-001-0086,294,OVRLRESP,Overall Response,PD,2023-10-15,6,WEEK 48,337
SYNTH-ONC-001,RS,SYNTH-ONC-001-0086,295,OVRLRESP,Overall Response,PD,2024-01-07,7,WEEK 60,421
SYNTH-ONC-001,RS,SYNTH-ONC-001-0086,296,OVRLRESP,Overall Response,PD,2024-03-31,8,WEEK 72,505
SYNTH-ONC-001,RS,SYNTH-ONC-001-0086,297,OVRLRESP,Overall Response,PD,2024-06-23,9,WEEK 84,589
SYNTH-ONC-001,RS,SYNTH-ONC-001-0086,298,OVRLRESP,Overall Response,PD,2024-09-15,10,WEEK 96,673
SYNTH-ONC-001,RS,SYNTH-ONC-001-0086,299,OVRLRESP,Overall Response,PD,2024-12-08,11,WEEK 108,757
SYNTH-ONC-001,RS,SYNTH-ONC-001-0087,300,OVRLRESP,Overall Response,SD,2021-09-03,3,WEEK 12,85
SYNTH-ONC-001,RS,SYNTH-ONC-001-0087,301,OVRLRESP,Overall Response,PR,2021-11-26,4,WEEK 24,169
SYNTH-ONC-001,RS,SYNTH-ONC-001-0089,302,OVRLRESP,Overall Response,PD,2022-04-28,3,WEEK 12,85
SYNTH-ONC-001,RS,SYNTH-ONC-001-0089,303,OVRLRESP,Overall Response,PD,2022-07-21,4,WEEK 24,169
SYNTH-ONC-001,RS,SYNTH-ONC-001-0089,304,OVRLRESP,Overall Response,PD,2022-10-13,5,WEEK 36,253
SYNTH-ONC-001,RS,SYNTH-ONC-001-0089,305,OVRLRESP,Overall Response,PD,2023-01-05,6,WEEK 48,337
SYNTH-ONC-001,RS,SYNTH-ONC-001-0089,306,OVRLRESP,Overall Response,PD,2023-03-30,7,WEEK 60,421
SYNTH-ONC-001,RS,SYNTH-ONC-001-0089,307,OVRLRESP,Overall Response,PD,2023-06-22,8,WEEK 72,505
SYNTH-ONC-001,RS,SYNTH-ONC-001-0089,308,OVRLRESP,Overall Response,PD,2023-09-14,9,WEEK 84,589
SYNTH-ONC-001,RS,SYNTH-ONC-001-0089,309,OVRLRESP,Overall Response,PD,2023-12-07,10,WEEK 96,673
SYNTH-ONC-001,RS,SYNTH-ONC-001-0089,310,OVRLRESP,Overall Response,PD,2024-02-29,11,WEEK 108,757
SYNTH-ONC-001,RS,SYNTH-ONC-001-0090,311,OVRLRESP,Overall Response,SD,2021-12-28,3,WEEK 12,85
SYNTH-ONC-001,RS,SYNTH-ONC-001-0092,312,OVRLRESP,Overall Response,SD,2022-04-22,3,WEEK 12,85
SYNTH-ONC-001,RS,SYNTH-ONC-001-0092,313,OVRLRESP,Overall Response,PD,2022-07-15,4,WEEK 24,169
SYNTH-ONC-001,RS,SYNTH-ONC-001-0092,314,OVRLRESP,Overall Response,PD,2022-10-07,5,WEEK 36,253
SYNTH-ONC-001,RS,SYNTH-ONC-001-0093,315,OVRLRESP,Overall Response,SD,2021-08-08,3,WEEK 12,85
SYNTH-ONC-001,RS,SYNTH-ONC-001-0094,316,OVRLRESP,Overall Response,SD,2021-10-07,3,WEEK 12,85
SYNTH-ONC-001,RS,SYNTH-ONC-001-0094,317,OVRLRESP,Overall Response,SD,2021-12-30,4,WEEK 24,169
SYNTH-ONC-001,RS,SYNTH-ONC-001-0094,318,OVRLRESP,Overall Response,SD,2022-03-24,5,WEEK 36,253
SYNTH-ONC-001,RS,SYNTH-ONC-001-0094,319,OVRLRESP,Overall Response,SD,2022-06-16,6,WEEK 48,337
SYNTH-ONC-001,RS,SYNTH-ONC-001-0095,320,OVRLRESP,Overall Response,SD,2022-05-01,3,WEEK 12,85
SYNTH-ONC-001,RS,SYNTH-ONC-001-0095,321,OVRLRESP,Overall Response,SD,2022-07-24,4,WEEK 24,169
SYNTH-ONC-001,RS,SYNTH-ONC-001-0096,322,OVRLRESP,Overall Response,SD,2022-12-26,3,WEEK 12,85
SYNTH-ONC-001,RS,SYNTH-ONC-001-0097,323,OVRLRESP,Overall Response,SD,2021-04-28,3,WEEK 12,85
SYNTH-ONC-001,RS,SYNTH-ONC-001-0097,324,OVRLRESP,Overall Response,PD,2021-07-21,4,WEEK 24,169
SYNTH-ONC-001,RS,SYNTH-ONC-001-0097,325,OVRLRESP,Overall Response,SD,2021-10-13,5,WEEK 36,253
SYNTH-ONC-001,RS,SYNTH-ONC-001-0098,326,OVRLRESP,Overall Response,SD,2023-02-12,3,WEEK 12,85
SYNTH-ONC-001,RS,SYNTH-ONC-001-0098,327,OVRLRESP,Overall Response,SD,2023-05-07,4,WEEK 24,169
SYNTH-ONC-001,RS,SYNTH-ONC-001-0098,328,OVRLRESP,Overall Response,SD,2023-07-30,5,WEEK 36,253
SYNTH-ONC-001,RS,SYNTH-ONC-001-0098,329,OVRLRESP,Overall Response,PD,2023-10-22,6,WEEK 48,337
SYNTH-ONC-001,RS,SYNTH-ONC-001-0098,330,OVRLRESP,Overall Response,SD,2024-01-14,7,WEEK 60,421
SYNTH-ONC-001,RS,SYNTH-ONC-001-0099,331,OVRLRESP,Overall Response,SD,2022-06-29,3,WEEK 12,85
SYNTH-ONC-001,RS,SYNTH-ONC-001-0099,332,OVRLRESP,Overall Response,SD,2022-09-21,4,WEEK 24,169
SYNTH-ONC-001,RS,SYNTH-ONC-001-0099,333,OVRLRESP,Overall Response,SD,2022-12-14,5,WEEK 36,253
SYNTH-ONC-001,RS,SYNTH-ONC-001-0099,334,OVRLRESP,Overall Response,PD,2023-03-08,6,WEEK 48,337
SYNTH-ONC-001,RS,SYNTH-ONC-001-0099,335,OVRLRESP,Overall Response,SD,2023-05-31,7,WEEK 60,421
SYNTH-ONC-001,RS,SYNTH-ONC-001-0099,336,OVRLRESP,Overall Response,SD,2023-08-23,8,WEEK 72,505
SYNTH-ONC-001,RS,SYNTH-ONC-001-0099,337,OVRLRESP,Overall Response,SD,2023-11-15,9,WEEK 84,589
SYNTH-ONC-001,RS,SYNTH-ONC-001-0099,338,OVRLRESP,Overall Response,SD,2024-02-07,10,WEEK 96,673
SYNTH-ONC-001,RS,SYNTH-ONC-001-0100,339,OVRLRESP,Overall Response,SD,2022-07-09,3,WEEK 12,85
SYNTH-ONC-001,RS,SYNTH-ONC-001-0100,340,OVRLRESP,Overall Response,SD,2022-10-01,4,WEEK 24,169
SYNTH-ONC-001,RS,SYNTH-ONC-001-0100,341,OVRLRESP,Overall Response,PR,2022-12-24,5,WEEK 36,253
SYNTH-ONC-001,RS,SYNTH-ONC-001-0100,342,OVRLRESP,Overall Response,PR,2023-03-18,6,WEEK 48,337
SYNTH-ONC-001,RS,SYNTH-ONC-001-0100,343,OVRLRESP,Overall Response,PR,2023-06-10,7,WEEK 60,421
SYNTH-ONC-001,RS,SYNTH-ONC-001-0100,344,OVRLRESP,Overall Response,PR,2023-09-02,8,WEEK 72,505
SYNTH-ONC-001,RS,SYNTH-ONC-001-0100,345,OVRLRESP,Overall Response,PR,2023-11-25,9,WEEK 84,589
SYNTH-ONC-001,RS,SYNTH-ONC-001-0100,346,OVRLRESP,Overall Response,PR,2024-02-17,10,WEEK 96,673
SYNTH-ONC-001,RS,SYNTH-ONC-001-0100,347,OVRLRESP,Overall Response,PR,2024-05-11,11,WEEK 108,757
SYNTH-ONC-001,RS,SYNTH-ONC-001-0101,348,OVRLRESP,Overall Response,SD,2022-04-05,3,WEEK 12,85
SYNTH-ONC-001,RS,SYNTH-ONC-001-0101,349,OVRLRESP,Overall Response,SD,2022-06-28,4,WEEK 24,169
SYNTH-ONC-001,RS,SYNTH-ONC-001-0107,350,OVRLRESP,Overall Response,SD,2022-10-10,3,WEEK 12,85
SYNTH-ONC-001,RS,SYNTH-ONC-001-0107,351,OVRLRESP,Overall Response,PR,2023-01-02,4,WEEK 24,169
SYNTH-ONC-001,RS,SYNTH-ONC-001-0107,352,OVRLRESP,Overall Response,PR,2023-03-27,5,WEEK 36,253
SYNTH-ONC-001,RS,SYNTH-ONC-001-0107,353,OVRLRESP,Overall Response,PR,2023-06-19,6,WEEK 48,337
SYNTH-ONC-001,RS,SYNTH-ONC-001-0107,354,OVRLRESP,Overall Response,PR,2023-09-11,7,WEEK 60,421
SYNTH-ONC-001,RS,SYNTH-ONC-001-0107,355,OVRLRESP,Overall Response,PR,2023-12-04,8,WEEK 72,505
SYNTH-ONC-001,RS,SYNTH-ONC-001-0107,356,OVRLRESP,Overall Response,PR,2024-02-26,9,WEEK 84,589
SYNTH-ONC-001,RS,SYNTH-ONC-001-0108,357,OVRLRESP,Overall Response,SD,2022-06-07,3,WEEK 12,85
SYNTH-ONC-001,RS,SYNTH-ONC-001-0110,358,OVRLRESP,Overall Response,SD,2021-04-22,3,WEEK 12,85
SYNTH-ONC-001,RS,SYNTH-ONC-001-0110,359,OVRLRESP,Overall Response,PD,2021-07-15,4,WEEK 24,169
SYNTH-ONC-001,RS,SYNTH-ONC-001-0110,360,OVRLRESP,Overall Response,PD,2021-10-07,5,WEEK 36,253
SYNTH-ONC-001,RS,SYNTH-ONC-001-0110,361,OVRLRESP,Overall Response,PD,2021-12-30,6,WEEK 48,337
SYNTH-ONC-001,RS,SYNTH-ONC-001-0110,362,OVRLRESP,Overall Response,PD,2022-03-24,7,WEEK 60,421
SYNTH-ONC-001,RS,SYNTH-ONC-001-0110,363,OVRLRESP,Overall Response,PD,2022-06-16,8,WEEK 72,505
SYNTH-ONC-001,RS,SYNTH-ONC-001-0110,364,OVRLRESP,Overall Response,PD,2022-09-08,9,WEEK 84,589
SYNTH-ONC-001,RS,SYNTH-ONC-001-0111,365,OVRLRESP,Overall Response,SD,2021-11-07,3,WEEK 12,85
SYNTH-ONC-001,RS,SYNTH-ONC-001-0111,366,OVRLRESP,Overall Response,SD,2022-01-30,4,WEEK 24,169
SYNTH-ONC-001,RS,SYNTH-ONC-001-0112,367,OVRLRESP,Overall Response,SD,2021-12-28,3,WEEK 12,85
SYNTH-ONC-001,RS,SYNTH-ONC-001-0112,368,OVRLRESP,Overall Response,SD,2022-03-22,4,WEEK 24,169
SYNTH-ONC-001,RS,SYNTH-ONC-001-0112,369,OVRLRESP,Overall Response,SD,2022-06-14,5,WEEK 36,253
SYNTH-ONC-001,RS,SYNTH-ONC-001-0112,370,OVRLRESP,Overall Response,SD,2022-09-06,6,WEEK 48,337
SYNTH-ONC-001,RS,SYNTH-ONC-001-0112,371,OVRLRESP,Overall Response,SD,2022-11-29,7,WEEK 60,421
SYNTH-ONC-001,RS,SYNTH-ONC-001-0112,372,OVRLRESP,Overall Response,SD,2023-02-21,8,WEEK 72,505
SYNTH-ONC-001,RS,SYNTH-ONC-001-0112,373,OVRLRESP,Overall Response,SD,2023-05-16,9,WEEK 84,589
SYNTH-ONC-001,RS,SYNTH-ONC-001-0112,374,OVRLRESP,Overall Response,SD,2023-08-08,10,WEEK 96,673
SYNTH-ONC-001,RS,SYNTH-ONC-001-0112,375,OVRLRESP,Overall Response,PD,2023-10-31,11,WEEK 108,757
SYNTH-ONC-001,RS,SYNTH-ONC-001-0113,376,OVRLRESP,Overall Response,PD,2022-11-25,3,WEEK 12,85
SYNTH-ONC-001,RS,SYNTH-ONC-001-0113,377,OVRLRESP,Overall Response,PD,2023-02-17,4,WEEK 24,169
SYNTH-ONC-001,RS,SYNTH-ONC-001-0113,378,OVRLRESP,Overall Response,PD,2023-05-12,5,WEEK 36,253
SYNTH-ONC-001,RS,SYNTH-ONC-001-0113,379,OVRLRESP,Overall Response,PD,2023-08-04,6,WEEK 48,337
SYNTH-ONC-001,RS,SYNTH-ONC-001-0113,380,OVRLRESP,Overall Response,PD,2023-10-27,7,WEEK 60,421
SYNTH-ONC-001,RS,SYNTH-ONC-001-0113,381,OVRLRESP,Overall Response,PD,2024-01-19,8,WEEK 72,505
SYNTH-ONC-001,RS,SYNTH-ONC-001-0113,382,OVRLRESP,Overall Response,PD,2024-04-12,9,WEEK 84,589
SYNTH-ONC-001,RS,SYNTH-ONC-001-0113,383,OVRLRESP,Overall Response,PD,2024-07-05,10,WEEK 96,673
SYNTH-ONC-001,RS,SYNTH-ONC-001-0113,384,OVRLRESP,Overall Response,PD,2024-09-27,11,WEEK 108,757
SYNTH-ONC-001,RS,SYNTH-ONC-001-0115,385,OVRLRESP,Overall Response,SD,2022-07-20,3,WEEK 12,85
SYNTH-ONC-001,RS,SYNTH-ONC-001-0117,386,OVRLRESP,Overall Response,SD,2023-01-14,3,WEEK 12,85
SYNTH-ONC-001,RS,SYNTH-ONC-001-0117,387,OVRLRESP,Overall Response,SD,2023-04-08,4,WEEK 24,169
SYNTH-ONC-001,RS,SYNTH-ONC-001-0117,388,OVRLRESP,Overall Response,SD,2023-07-01,5,WEEK 36,253
SYNTH-ONC-001,RS,SYNTH-ONC-001-0117,389,OVRLRESP,Overall Response,SD,2023-09-23,6,WEEK 48,337
SYNTH-ONC-001,RS,SYNTH-ONC-001-0117,390,OVRLRESP,Overall Response,SD,2023-12-16,7,WEEK 60,421
SYNTH-ONC-001,RS,SYNTH-ONC-001-0117,391,OVRLRESP,Overall Response,SD,2024-03-09,8,WEEK 72,505
SYNTH-ONC-001,RS,SYNTH-ONC-001-0117,392,OVRLRESP,Overall Response,SD,2024-06-01,9,WEEK 84,589
SYNTH-ONC-001,RS,SYNTH-ONC-001-0117,393,OVRLRESP,Overall Response,PD,2024-08-24,10,WEEK 96,673
SYNTH-ONC-001,RS,SYNTH-ONC-001-0117,394,OVRLRESP,Overall Response,PD,2024-11-16,11,WEEK 108,757
SYNTH-ONC-001,RS,SYNTH-ONC-001-0118,395,OVRLRESP,Overall Response,PD,2022-08-24,3,WEEK 12,85
SYNTH-ONC-001,RS,SYNTH-ONC-001-0118,396,OVRLRESP,Overall Response,PD,2022-11-16,4,WEEK 24,169
SYNTH-ONC-001,RS,SYNTH-ONC-001-0118,397,OVRLRESP,Overall Response,PD,2023-02-08,5,WEEK 36,253
SYNTH-ONC-001,RS,SYNTH-ONC-001-0118,398,OVRLRESP,Overall Response,PD,2023-05-03,6,WEEK 48,337
SYNTH-ONC-001,RS,SYNTH-ONC-001-0119,399,OVRLRESP,Overall Response,SD,2022-09-24,3,WEEK 12,85
SYNTH-ONC-001,RS,SYNTH-ONC-001-0119,400,OVRLRESP,Overall Response,PD,2022-12-17,4,WEEK 24,169
SYNTH-ONC-001,RS,SYNTH-ONC-001-0120,401,OVRLRESP,Overall Response,SD,2021-10-04,3,WEEK 12,85
SYNTH-ONC-001,RS,SYNTH-ONC-001-0120,402,OVRLRESP,Overall Response,PR,2021-12-27,4,WEEK 24,169
SYNTH-ONC-001,RS,SYNTH-ONC-001-0120,403,OVRLRESP,Overall Response,SD,2022-03-21,5,WEEK 36,253
SYNTH-ONC-001,RS,SYNTH-ONC-001-0121,404,OVRLRESP,Overall Response,SD,2021-05-14,3,WEEK 12,85
SYNTH-ONC-001,RS,SYNTH-ONC-001-0121,405,OVRLRESP,Overall Response,PD,2021-08-06,4,WEEK 24,169
SYNTH-ONC-001,RS,SYNTH-ONC-001-0121,406,OVRLRESP,Overall Response,SD,2021-10-29,5,WEEK 36,253
SYNTH-ONC-001,RS,SYNTH-ONC-001-0121,407,OVRLRESP,Overall Response,SD,2022-01-21,6,WEEK 48,337
SYNTH-ONC-001,RS,SYNTH-ONC-001-0121,408,OVRLRESP,Overall Response,SD,2022-04-15,7,WEEK 60,421
SYNTH-ONC-001,RS,SYNTH-ONC-001-0121,409,OVRLRESP,Overall Response,SD,2022-07-08,8,WEEK 72,505
SYNTH-ONC-001,RS,SYNTH-ONC-001-0121,410,OVRLRESP,Overall Response,SD,2022-09-30,9,WEEK 84,589
SYNTH-ONC-001,RS,SYNTH-ONC-001-0121,411,OVRLRESP,Overall Response,SD,2022-12-23,10,WEEK 96,673
SYNTH-ONC-001,RS,SYNTH-ONC-001-0121,412,OVRLRESP,Overall Response,PD,2023-03-17,11,WEEK 108,757
SYNTH-ONC-001,RS,SYNTH-ONC-001-0122,413,OVRLRESP,Overall Response,SD,2022-08-20,3,WEEK 12,85
SYNTH-ONC-001,RS,SYNTH-ONC-001-0122,414,OVRLRESP,Overall Response,PD,2022-11-12,4,WEEK 24,169
SYNTH-ONC-001,RS,SYNTH-ONC-001-0123,415,OVRLRESP,Overall Response,SD,2021-04-12,3,WEEK 12,85
SYNTH-ONC-001,RS,SYNTH-ONC-001-0123,416,OVRLRESP,Overall Response,SD,2021-07-05,4,WEEK 24,169
SYNTH-ONC-001,RS,SYNTH-ONC-001-0123,417,OVRLRESP,Overall Response,SD,2021-09-27,5,WEEK 36,253
SYNTH-ONC-001,RS,SYNTH-ONC-001-0123,418,OVRLRESP,Overall Response,PD,2021-12-20,6,WEEK 48,337
SYNTH-ONC-001,RS,SYNTH-ONC-001-0123,419,OVRLRESP,Overall Response,PD,2022-03-14,7,WEEK 60,421
SYNTH-ONC-001,RS,SYNTH-ONC-001-0124,420,OVRLRESP,Overall Response,SD,2021-09-14,3,WEEK 12,85
SYNTH-ONC-001,RS,SYNTH-ONC-001-0126,421,OVRLRESP,Overall Response,PD,2021-08-31,3,WEEK 12,85
SYNTH-ONC-001,RS,SYNTH-ONC-001-0128,422,OVRLRESP,Overall Response,PR,2021-05-11,3,WEEK 12,85
SYNTH-ONC-001,RS,SYNTH-ONC-001-0128,423,OVRLRESP,Overall Response,SD,2021-08-03,4,WEEK 24,169
SYNTH-ONC-001,RS,SYNTH-ONC-001-0129,424,OVRLRESP,Overall Response,SD,2022-04-03,3,WEEK 12,85
SYNTH-ONC-001,RS,SYNTH-ONC-001-0129,425,OVRLRESP,Overall Response,SD,2022-06-26,4,WEEK 24,169
SYNTH-ONC-001,RS,SYNTH-ONC-001-0129,426,OVRLRESP,Overall Response,SD,2022-09-18,5,WEEK 36,253
SYNTH-ONC-001,RS,SYNTH-ONC-001-0129,427,OVRLRESP,Overall Response,PR,2022-12-11,6,WEEK 48,337
SYNTH-ONC-001,RS,SYNTH-ONC-001-0129,428,OVRLRESP,Overall Response,PR,2023-03-05,7,WEEK 60,421
SYNTH-ONC-001,RS,SYNTH-ONC-001-0129,429,OVRLRESP,Overall Response,PR,2023-05-28,8,WEEK 72,505
SYNTH-ONC-001,RS,SYNTH-ONC-001-0129,430,OVRLRESP,Overall Response,PR,2023-08-20,9,WEEK 84,589
SYNTH-ONC-001,RS,SYNTH-ONC-001-0129,431,OVRLRESP,Overall Response,PR,2023-11-12,10,WEEK 96,673
SYNTH-ONC-001,RS,SYNTH-ONC-001-0129,432,OVRLRESP,Overall Response,PR,2024-02-04,11,WEEK 108,757
SYNTH-ONC-001,RS,SYNTH-ONC-001-0130,433,OVRLRESP,Overall Response,SD,2022-08-26,3,WEEK 12,85
SYNTH-ONC-001,RS,SYNTH-ONC-001-0130,434,OVRLRESP,Overall Response,SD,2022-11-18,4,WEEK 24,169
SYNTH-ONC-001,RS,SYNTH-ONC-001-0130,435,OVRLRESP,Overall Response,SD,2023-02-10,5,WEEK 36,253
SYNTH-ONC-001,RS,SYNTH-ONC-001-0130,436,OVRLRESP,Overall Response,SD,2023-05-05,6,WEEK 48,337
SYNTH-ONC-001,RS,SYNTH-ONC-001-0130,437,OVRLRESP,Overall Response,PD,2023-07-28,7,WEEK 60,421
SYNTH-ONC-001,RS,SYNTH-ONC-001-0130,438,OVRLRESP,Overall Response,PD,2023-10-20,8,WEEK 72,505
SYNTH-ONC-001,RS,SYNTH-ONC-001-0130,439,OVRLRESP,Overall Response,SD,2024-01-12,9,WEEK 84,589
SYNTH-ONC-001,RS,SYNTH-ONC-001-0130,440,OVRLRESP,Overall Response,PD,2024-04-05,10,WEEK 96,673
SYNTH-ONC-001,RS,SYNTH-ONC-001-0130,441,OVRLRESP,Overall Response,PD,2024-06-28,11,WEEK 108,757
SYNTH-ONC-001,RS,SYNTH-ONC-001-0131,442,OVRLRESP,Overall Response,SD,2021-07-03,3,WEEK 12,85
SYNTH-ONC-001,RS,SYNTH-ONC-001-0131,443,OVRLRESP,Overall Response,SD,2021-09-25,4,WEEK 24,169
SYNTH-ONC-001,RS,SYNTH-ONC-001-0131,444,OVRLRESP,Overall Response,SD,2021-12-18,5,WEEK 36,253
SYNTH-ONC-001,RS,SYNTH-ONC-001-0131,445,OVRLRESP,Overall Response,PD,2022-03-12,6,WEEK 48,337
SYNTH-ONC-001,RS,SYNTH-ONC-001-0132,446,OVRLRESP,Overall Response,PD,2021-05-02,3,WEEK 12,85
SYNTH-ONC-001,RS,SYNTH-ONC-001-0132,447,OVRLRESP,Overall Response,PD,2021-07-25,4,WEEK 24,169
SYNTH-ONC-001,RS,SYNTH-ONC-001-0132,448,OVRLRESP,Overall Response,PD,2021-10-17,5,WEEK 36,253
SYNTH-ONC-001,RS,SYNTH-ONC-001-0132,449,OVRLRESP,Overall Response,PD,2022-01-09,6,WEEK 48,337
SYNTH-ONC-001,RS,SYNTH-ONC-001-0132,450,OVRLRESP,Overall Response,PD,2022-04-03,7,WEEK 60,421
SYNTH-ONC-001,RS,SYNTH-ONC-001-0132,451,OVRLRESP,Overall Response,PD,2022-06-26,8,WEEK 72,505
SYNTH-ONC-001,RS,SYNTH-ONC-001-0132,452,OVRLRESP,Overall Response,PD,2022-09-18,9,WEEK 84,589
SYNTH-ONC-001,RS,SYNTH-ONC-001-0132,453,OVRLRESP,Overall Response,SD,2022-12-11,10,WEEK 96,673
SYNTH-ONC-001,RS,SYNTH-ONC-001-0132,454,OVRLRESP,Overall Response,PD,2023-03-05,11,WEEK 108,757
SYNTH-ONC-001,RS,SYNTH-ONC-001-0133,455,OVRLRESP,Overall Response,SD,2021-12-31,3,WEEK 12,85
SYNTH-ONC-001,RS,SYNTH-ONC-001-0133,456,OVRLRESP,Overall Response,SD,2022-03-25,4,WEEK 24,169
SYNTH-ONC-001,RS,SYNTH-ONC-001-0133,457,OVRLRESP,Overall Response,SD,2022-06-17,5,WEEK 36,253
SYNTH-ONC-001,RS,SYNTH-ONC-001-0134,458,OVRLRESP,Overall Response,PD,2022-03-10,3,WEEK 12,85
SYNTH-ONC-001,RS,SYNTH-ONC-001-0137,459,OVRLRESP,Overall Response,PR,2021-09-23,3,WEEK 12,85
SYNTH-ONC-001,RS,SYNTH-ONC-001-0137,460,OVRLRESP,Overall Response,PR,2021-12-16,4,WEEK 24,169
SYNTH-ONC-001,RS,SYNTH-ONC-001-0137,461,OVRLRESP,Overall Response,PR,2022-03-10,5,WEEK 36,253
SYNTH-ONC-001,RS,SYNTH-ONC-001-0137,462,OVRLRESP,Overall Response,PR,2022-06-02,6,WEEK 48,337
SYNTH-ONC-001,RS,SYNTH-ONC-001-0138,463,OVRLRESP,Overall Response,SD,2022-11-23,3,WEEK 12,85
SYNTH-ONC-001,RS,SYNTH-ONC-001-0138,464,OVRLRESP,Overall Response,SD,2023-02-15,4,WEEK 24,169
SYNTH-ONC-001,RS,SYNTH-ONC-001-0138,465,OVRLRESP,Overall Response,SD,2023-05-10,5,WEEK 36,253
SYNTH-ONC-001,RS,SYNTH-ONC-001-0138,466,OVRLRESP,Overall Response,PR,2023-08-02,6,WEEK 48,337
SYNTH-ONC-001,RS,SYNTH-ONC-001-0138,467,OVRLRESP,Overall Response,SD,2023-10-25,7,WEEK 60,421
SYNTH-ONC-001,RS,SYNTH-ONC-001-0138,468,OVRLRESP,Overall Response,SD,2024-01-17,8,WEEK 72,505
SYNTH-ONC-001,RS,SYNTH-ONC-001-0138,469,OVRLRESP,Overall Response,PR,2024-04-10,9,WEEK 84,589
SYNTH-ONC-001,RS,SYNTH-ONC-001-0139,470,OVRLRESP,Overall Response,SD,2021-07-03,3,WEEK 12,85
SYNTH-ONC-001,RS,SYNTH-ONC-001-0139,471,OVRLRESP,Overall Response,PR,2021-09-25,4,WEEK 24,169
SYNTH-ONC-001,RS,SYNTH-ONC-001-0139,472,OVRLRESP,Overall Response,PR,2021-12-18,5,WEEK 36,253
SYNTH-ONC-001,RS,SYNTH-ONC-001-0139,473,OVRLRESP,Overall Response,PR,2022-03-12,6,WEEK 48,337
SYNTH-ONC-001,RS,SYNTH-ONC-001-0139,474,OVRLRESP,Overall Response,PR,2022-06-04,7,WEEK 60,421
SYNTH-ONC-001,RS,SYNTH-ONC-001-0139,475,OVRLRESP,Overall Response,PR,2022-08-27,8,WEEK 72,505
SYNTH-ONC-001,RS,SYNTH-ONC-001-0139,476,OVRLRESP,Overall Response,PR,2022-11-19,9,WEEK 84,589
SYNTH-ONC-001,RS,SYNTH-ONC-001-0139,477,OVRLRESP,Overall Response,PR,2023-02-11,10,WEEK 96,673
SYNTH-ONC-001,RS,SYNTH-ONC-001-0139,478,OVRLRESP,Overall Response,PR,2023-05-06,11,WEEK 108,757
SYNTH-ONC-001,RS,SYNTH-ONC-001-0141,479,OVRLRESP,Overall Response,SD,2021-07-20,3,WEEK 12,85
SYNTH-ONC-001,RS,SYNTH-ONC-001-0143,480,OVRLRESP,Overall Response,SD,2021-12-04,3,WEEK 12,85
SYNTH-ONC-001,RS,SYNTH-ONC-001-0145,481,OVRLRESP,Overall Response,PR,2021-12-07,3,WEEK 12,85
SYNTH-ONC-001,RS,SYNTH-ONC-001-0146,482,OVRLRESP,Overall Response,SD,2022-02-12,3,WEEK 12,85
SYNTH-ONC-001,RS,SYNTH-ONC-001-0146,483,OVRLRESP,Overall Response,SD,2022-05-07,4,WEEK 24,169
SYNTH-ONC-001,RS,SYNTH-ONC-001-0146,484,OVRLRESP,Overall Response,SD,2022-07-30,5,WEEK 36,253
SYNTH-ONC-001,RS,SYNTH-ONC-001-0146,485,OVRLRESP,Overall Response,SD,2022-10-22,6,WEEK 48,337
SYNTH-ONC-001,RS,SYNTH-ONC-001-0146,486,OVRLRESP,Overall Response,PD,2023-01-14,7,WEEK 60,421
SYNTH-ONC-001,RS,SYNTH-ONC-001-0146,487,OVRLRESP,Overall Response,PD,2023-04-08,8,WEEK 72,505
SYNTH-ONC-001,RS,SYNTH-ONC-001-0146,488,OVRLRESP,Overall Response,SD,2023-07-01,9,WEEK 84,589
SYNTH-ONC-001,RS,SYNTH-ONC-001-0147,489,OVRLRESP,Overall Response,SD,2021-08-01,3,WEEK 12,85
SYNTH-ONC-001,RS,SYNTH-ONC-001-0147,490,OVRLRESP,Overall Response,SD,2021-10-24,4,WEEK 24,169
SYNTH-ONC-001,RS,SYNTH-ONC-001-0147,491,OVRLRESP,Overall Response,SD,2022-01-16,5,WEEK 36,253
SYNTH-ONC-001,RS,SYNTH-ONC-001-0147,492,OVRLRESP,Overall Response,PD,2022-04-10,6,WEEK 48,337
SYNTH-ONC-001,RS,SYNTH-ONC-001-0147,493,OVRLRESP,Overall Response,PD,2022-07-03,7,WEEK 60,421
SYNTH-ONC-001,RS,SYNTH-ONC-001-0148,494,OVRLRESP,Overall Response,SD,2021-04-13,3,WEEK 12,85
SYNTH-ONC-001,RS,SYNTH-ONC-001-0148,495,OVRLRESP,Overall Response,SD,2021-07-06,4,WEEK 24,169
SYNTH-ONC-001,RS,SYNTH-ONC-001-0148,496,OVRLRESP,Overall Response,SD,2021-09-28,5,WEEK 36,253
SYNTH-ONC-001,RS,SYNTH-ONC-001-0149,497,OVRLRESP,Overall Response,SD,2022-10-13,3,WEEK 12,85
SYNTH-ONC-001,RS,SYNTH-ONC-001-0149,498,OVRLRESP,Overall Response,PD,2023-01-05,4,WEEK 24,169
SYNTH-ONC-001,RS,SYNTH-ONC-001-0149,499,OVRLRESP,Overall Response,PD,2023-03-30,5,WEEK 36,253
SYNTH-ONC-001,RS,SYNTH-ONC-001-0149,500,OVRLRESP,Overall Response,PD,2023-06-22,6,WEEK 48,337
SYNTH-ONC-001,RS,SYNTH-ONC-001-0149,501,OVRLRESP,Overall Response,PD,2023-09-14,7,WEEK 60,421
SYNTH-ONC-001,RS,SYNTH-ONC-001-0149,502,OVRLRESP,Overall Response,PD,2023-12-07,8,WEEK 72,505
SYNTH-ONC-001,RS,SYNTH-ONC-001-0151,503,OVRLRESP,Overall Response,SD,2022-02-12,3,WEEK 12,85
SYNTH-ONC-001,RS,SYNTH-ONC-001-0151,504,OVRLRESP,Overall Response,SD,2022-05-07,4,WEEK 24,169
SYNTH-ONC-001,RS,SYNTH-ONC-001-0151,505,OVRLRESP,Overall Response,SD,2022-07-30,5,WEEK 36,253
SYNTH-ONC-001,RS,SYNTH-ONC-001-0151,506,OVRLRESP,Overall Response,SD,2022-10-22,6,WEEK 48,337
SYNTH-ONC-001,RS,SYNTH-ONC-001-0151,507,OVRLRESP,Overall Response,PD,2023-01-14,7,WEEK 60,421
SYNTH-ONC-001,RS,SYNTH-ONC-001-0151,508,OVRLRESP,Overall Response,PD,2023-04-08,8,WEEK 72,505
SYNTH-ONC-001,RS,SYNTH-ONC-001-0151,509,OVRLRESP,Overall Response,PD,2023-07-01,9,WEEK 84,589
SYNTH-ONC-001,RS,SYNTH-ONC-001-0151,510,OVRLRESP,Overall Response,PD,2023-09-23,10,WEEK 96,673
SYNTH-ONC-001,RS,SYNTH-ONC-001-0151,511,OVRLRESP,Overall Response,PD,2023-12-16,11,WEEK 108,757
SYNTH-ONC-001,RS,SYNTH-ONC-001-0152,512,OVRLRESP,Overall Response,SD,2023-02-10,3,WEEK 12,85
SYNTH-ONC-001,RS,SYNTH-ONC-001-0152,513,OVRLRESP,Overall Response,SD,2023-05-05,4,WEEK 24,169
SYNTH-ONC-001,RS,SYNTH-ONC-001-0154,514,OVRLRESP,Overall Response,PD,2022-01-08,3,WEEK 12,85
SYNTH-ONC-001,RS,SYNTH-ONC-001-0154,515,OVRLRESP,Overall Response,PD,2022-04-02,4,WEEK 24,169
SYNTH-ONC-001,RS,SYNTH-ONC-001-0154,516,OVRLRESP,Overall Response,SD,2022-06-25,5,WEEK 36,253
SYNTH-ONC-001,RS,SYNTH-ONC-001-0154,517,OVRLRESP,Overall Response,SD,2022-09-17,6,WEEK 48,337
SYNTH-ONC-001,RS,SYNTH-ONC-001-0154,518,OVRLRESP,Overall Response,SD,2022-12-10,7,WEEK 60,421
SYNTH-ONC-001,RS,SYNTH-ONC-001-0154,519,OVRLRESP,Overall Response,SD,2023-03-04,8,WEEK 72,505
SYNTH-ONC-001,RS,SYNTH-ONC-001-0154,520,OVRLRESP,Overall Response,PR,2023-05-27,9,WEEK 84,589
SYNTH-ONC-001,RS,SYNTH-ONC-001-0156,521,OVRLRESP,Overall Response,PR,2022-12-25,3,WEEK 12,85
SYNTH-ONC-001,RS,SYNTH-ONC-001-0156,522,OVRLRESP,Overall Response,PR,2023-03-19,4,WEEK 24,169
SYNTH-ONC-001,RS,SYNTH-ONC-001-0156,523,OVRLRESP,Overall Response,PR,2023-06-11,5,WEEK 36,253
SYNTH-ONC-001,RS,SYNTH-ONC-001-0156,524,OVRLRESP,Overall Response,PR,2023-09-03,6,WEEK 48,337
SYNTH-ONC-001,RS,SYNTH-ONC-001-0156,525,OVRLRESP,Overall Response,PR,2023-11-26,7,WEEK 60,421
SYNTH-ONC-001,RS,SYNTH-ONC-001-0156,526,OVRLRESP,Overall Response,PR,2024-02-18,8,WEEK 72,505
SYNTH-ONC-001,RS,SYNTH-ONC-001-0156,527,OVRLRESP,Overall Response,PR,2024-05-12,9,WEEK 84,589
SYNTH-ONC-001,RS,SYNTH-ONC-001-0156,528,OVRLRESP,Overall Response,PR,2024-08-04,10,WEEK 96,673
SYNTH-ONC-001,RS,SYNTH-ONC-001-0156,529,OVRLRESP,Overall Response,PR,2024-10-27,11,WEEK 108,757
SYNTH-ONC-001,RS,SYNTH-ONC-001-0157,530,OVRLRESP,Overall Response,SD,2021-08-28,3,WEEK 12,85
SYNTH-ONC-001,RS,SYNTH-ONC-001-0158,531,OVRLRESP,Overall Response,SD,2022-07-29,3,WEEK 12,85
SYNTH-ONC-001,RS,SYNTH-ONC-001-0158,532,OVRLRESP,Overall Response,PD,2022-10-21,4,WEEK 24,169
SYNTH-ONC-001,RS,SYNTH-ONC-001-0158,533,OVRLRESP,Overall Response,SD,2023-01-13,5,WEEK 36,253
SYNTH-ONC-001,RS,SYNTH-ONC-001-0158,534,OVRLRESP,Overall Response,SD,2023-04-07,6,WEEK 48,337
SYNTH-ONC-001,RS,SYNTH-ONC-001-0160,535,OVRLRESP,Overall Response,PR,2021-07-08,3,WEEK 12,85
SYNTH-ONC-001,RS,SYNTH-ONC-001-0160,536,OVRLRESP,Overall Response,SD,2021-09-30,4,WEEK 24,169
SYNTH-ONC-001,RS,SYNTH-ONC-001-0160,537,OVRLRESP,Overall Response,PR,2021-12-23,5,WEEK 36,253
SYNTH-ONC-001,RS,SYNTH-ONC-001-0160,538,OVRLRESP,Overall Response,PR,2022-03-17,6,WEEK 48,337
SYNTH-ONC-001,RS,SYNTH-ONC-001-0160,539,OVRLRESP,Overall Response,PR,2022-06-09,7,WEEK 60,421
SYNTH-ONC-001,RS,SYNTH-ONC-001-0160,540,OVRLRESP,Overall Response,PR,2022-09-01,8,WEEK 72,505
SYNTH-ONC-001,RS,SYNTH-ONC-001-0160,541,OVRLRESP,Overall Response,PR,2022-11-24,9,WEEK 84,589
SYNTH-ONC-001,RS,SYNTH-ONC-001-0160,542,OVRLRESP,Overall Response,PR,2023-02-16,10,WEEK 96,673
SYNTH-ONC-001,RS,SYNTH-ONC-001-0160,543,OVRLRESP,Overall Response,PR,2023-05-11,11,WEEK 108,757
SYNTH-ONC-001,RS,SYNTH-ONC-001-0161,544,OVRLRESP,Overall Response,PD,2022-04-23,3,WEEK 12,85
SYNTH-ONC-001,RS,SYNTH-ONC-001-0161,545,OVRLRESP,Overall Response,PD,2022-07-16,4,WEEK 24,169
SYNTH-ONC-001,RS,SYNTH-ONC-001-0161,546,OVRLRESP,Overall Response,PD,2022-10-08,5,WEEK 36,253
SYNTH-ONC-001,RS,SYNTH-ONC-001-0161,547,OVRLRESP,Overall Response,PD,2022-12-31,6,WEEK 48,337
SYNTH-ONC-001,RS,SYNTH-ONC-001-0161,548,OVRLRESP,Overall Response,PD,2023-03-25,7,WEEK 60,421
SYNTH-ONC-001,RS,SYNTH-ONC-001-0162,549,OVRLRESP,Overall Response,SD,2021-11-27,3,WEEK 12,85
SYNTH-ONC-001,RS,SYNTH-ONC-001-0162,550,OVRLRESP,Overall Response,SD,2022-02-19,4,WEEK 24,169
SYNTH-ONC-001,RS,SYNTH-ONC-001-0162,551,OVRLRESP,Overall Response,PD,2022-05-14,5,WEEK 36,253
SYNTH-ONC-001,RS,SYNTH-ONC-001-0162,552,OVRLRESP,Overall Response,PD,2022-08-06,6,WEEK 48,337
SYNTH-ONC-001,RS,SYNTH-ONC-001-0162,553,OVRLRESP,Overall Response,PD,2022-10-29,7,WEEK 60,421
SYNTH-ONC-001,RS,SYNTH-ONC-001-0162,554,OVRLRESP,Overall Response,PD,2023-01-21,8,WEEK 72,505
SYNTH-ONC-001,RS,SYNTH-ONC-001-0162,555,OVRLRESP,Overall Response,PD,2023-04-15,9,WEEK 84,589
SYNTH-ONC-001,RS,SYNTH-ONC-001-0162,556,OVRLRESP,Overall Response,PD,2023-07-08,10,WEEK 96,673
SYNTH-ONC-001,RS,SYNTH-ONC-001-0162,557,OVRLRESP,Overall Response,PD,2023-09-30,11,WEEK 108,757
SYNTH-ONC-001,RS,SYNTH-ONC-001-0164,558,OVRLRESP,Overall Response,SD,2021-05-04,3,WEEK 12,85
SYNTH-ONC-001,RS,SYNTH-ONC-001-0164,559,OVRLRESP,Overall Response,PD,2021-07-27,4,WEEK 24,169
SYNTH-ONC-001,RS,SYNTH-ONC-001-0164,560,OVRLRESP,Overall Response,PD,2021-10-19,5,WEEK 36,253
SYNTH-ONC-001,RS,SYNTH-ONC-001-0165,561,OVRLRESP,Overall Response,SD,2022-07-16,3,WEEK 12,85
SYNTH-ONC-001,RS,SYNTH-ONC-001-0165,562,OVRLRESP,Overall Response,SD,2022-10-08,4,WEEK 24,169
SYNTH-ONC-001,RS,SYNTH-ONC-001-0165,563,OVRLRESP,Overall Response,SD,2022-12-31,5,WEEK 36,253
SYNTH-ONC-001,RS,SYNTH-ONC-001-0165,564,OVRLRESP,Overall Response,PD,2023-03-25,6,WEEK 48,337
SYNTH-ONC-001,RS,SYNTH-ONC-001-0165,565,OVRLRESP,Overall Response,PD,2023-06-17,7,WEEK 60,421
SYNTH-ONC-001,RS,SYNTH-ONC-001-0165,566,OVRLRESP,Overall Response,PD,2023-09-09,8,WEEK 72,505
SYNTH-ONC-001,RS,SYNTH-ONC-001-0165,567,OVRLRESP,Overall Response,PD,2023-12-02,9,WEEK 84,589
SYNTH-ONC-001,RS,SYNTH-ONC-001-0165,568,OVRLRESP,Overall Response,PD,2024-02-24,10,WEEK 96,673
SYNTH-ONC-001,RS,SYNTH-ONC-001-0165,569,OVRLRESP,Overall Response,PD,2024-05-18,11,WEEK 108,757
SYNTH-ONC-001,RS,SYNTH-ONC-001-0166,570,OVRLRESP,Overall Response,SD,2023-02-06,3,WEEK 12,85
SYNTH-ONC-001,RS,SYNTH-ONC-001-0166,571,OVRLRESP,Overall Response,PD,2023-05-01,4,WEEK 24,169
SYNTH-ONC-001,RS,SYNTH-ONC-001-0168,572,OVRLRESP,Overall Response,SD,2022-05-08,3,WEEK 12,85
SYNTH-ONC-001,RS,SYNTH-ONC-001-0168,573,OVRLRESP,Overall Response,SD,2022-07-31,4,WEEK 24,169
SYNTH-ONC-001,RS,SYNTH-ONC-001-0169,574,OVRLRESP,Overall Response,PD,2022-09-02,3,WEEK 12,85
SYNTH-ONC-001,RS,SYNTH-ONC-001-0169,575,OVRLRESP,Overall Response,SD,2022-11-25,4,WEEK 24,169
SYNTH-ONC-001,RS,SYNTH-ONC-001-0169,576,OVRLRESP,Overall Response,PD,2023-02-17,5,WEEK 36,253
SYNTH-ONC-001,RS,SYNTH-ONC-001-0170,577,OVRLRESP,Overall Response,PR,2022-08-14,3,WEEK 12,85
SYNTH-ONC-001,RS,SYNTH-ONC-001-0170,578,OVRLRESP,Overall Response,PR,2022-11-06,4,WEEK 24,169
SYNTH-ONC-001,RS,SYNTH-ONC-001-0170,579,OVRLRESP,Overall Response,PR,2023-01-29,5,WEEK 36,253
SYNTH-ONC-001,RS,SYNTH-ONC-001-0170,580,OVRLRESP,Overall Response,SD,2023-04-23,6,WEEK 48,337
SYNTH-ONC-001,RS,SYNTH-ONC-001-0170,581,OVRLRESP,Overall Response,SD,2023-07-16,7,WEEK 60,421
SYNTH-ONC-001,RS,SYNTH-ONC-001-0170,582,OVRLRESP,Overall Response,PR,2023-10-08,8,WEEK 72,505
SYNTH-ONC-001,RS,SYNTH-ONC-001-0170,583,OVRLRESP,Overall Response,PR,2023-12-31,9,WEEK 84,589
SYNTH-ONC-001,RS,SYNTH-ONC-001-0170,584,OVRLRESP,Overall Response,SD,2024-03-24,10,WEEK 96,673
SYNTH-ONC-001,RS,SYNTH-ONC-001-0170,585,OVRLRESP,Overall Response,PR,2024-06-16,11,WEEK 108,757
SYNTH-ONC-001,RS,SYNTH-ONC-001-0171,586,OVRLRESP,Overall Response,SD,2021-05-01,3,WEEK 12,85
SYNTH-ONC-001,RS,SYNTH-ONC-001-0171,587,OVRLRESP,Overall Response,SD,2021-07-24,4,WEEK 24,169
SYNTH-ONC-001,RS,SYNTH-ONC-001-0172,588,OVRLRESP,Overall Response,PD,2023-02-09,3,WEEK 12,85
SYNTH-ONC-001,RS,SYNTH-ONC-001-0172,589,OVRLRESP,Overall Response,PD,2023-05-04,4,WEEK 24,169
SYNTH-ONC-001,RS,SYNTH-ONC-001-0172,590,OVRLRESP,Overall Response,SD,2023-07-27,5,WEEK 36,253
SYNTH-ONC-001,RS,SYNTH-ONC-001-0173,591,OVRLRESP,Overall Response,SD,2021-04-15,3,WEEK 12,85
SYNTH-ONC-001,RS,SYNTH-ONC-001-0174,592,OVRLRESP,Overall Response,SD,2022-02-10,3,WEEK 12,85
SYNTH-ONC-001,RS,SYNTH-ONC-001-0175,593,OVRLRESP,Overall Response,SD,2022-08-20,3,WEEK 12,85
SYNTH-ONC-001,RS,SYNTH-ONC-001-0175,594,OVRLRESP,Overall Response,SD,2022-11-12,4,WEEK 24,169
SYNTH-ONC-001,RS,SYNTH-ONC-001-0175,595,OVRLRESP,Overall Response,SD,2023-02-04,5,WEEK 36,253
SYNTH-ONC-001,RS,SYNTH-ONC-001-0175,596,OVRLRESP,Overall Response,PR,2023-04-29,6,WEEK 48,337
SYNTH-ONC-001,RS,SYNTH-ONC-001-0175,597,OVRLRESP,Overall Response,PR,2023-07-22,7,WEEK 60,421
SYNTH-ONC-001,RS,SYNTH-ONC-001-0175,598,OVRLRESP,Overall Response,PR,2023-10-14,8,WEEK 72,505
SYNTH-ONC-001,RS,SYNTH-ONC-001-0175,599,OVRLRESP,Overall Response,PR,2024-01-06,9,WEEK 84,589
SYNTH-ONC-001,RS,SYNTH-ONC-001-0175,600,OVRLRESP,Overall Response,PR,2024-03-30,10,WEEK 96,673
SYNTH-ONC-001,RS,SYNTH-ONC-001-0175,601,OVRLRESP,Overall Response,PR,2024-06-22,11,WEEK 108,757
SYNTH-ONC-001,RS,SYNTH-ONC-001-0176,602,OVRLRESP,Overall Response,SD,2022-04-30,3,WEEK 12,85
SYNTH-ONC-001,RS,SYNTH-ONC-001-0176,603,OVRLRESP,Overall Response,SD,2022-07-23,4,WEEK 24,169
SYNTH-ONC-001,RS,SYNTH-ONC-001-0177,604,OVRLRESP,Overall Response,SD,2023-01-09,3,WEEK 12,85
SYNTH-ONC-001,RS,SYNTH-ONC-001-0177,605,OVRLRESP,Overall Response,SD,2023-04-03,4,WEEK 24,169
SYNTH-ONC-001,RS,SYNTH-ONC-001-0177,606,OVRLRESP,Overall Response,SD,2023-06-26,5,WEEK 36,253
SYNTH-ONC-001,RS,SYNTH-ONC-001-0177,607,OVRLRESP,Overall Response,SD,2023-09-18,6,WEEK 48,337
SYNTH-ONC-001,RS,SYNTH-ONC-001-0177,608,OVRLRESP,Overall Response,PR,2023-12-11,7,WEEK 60,421
SYNTH-ONC-001,RS,SYNTH-ONC-001-0177,609,OVRLRESP,Overall Response,SD,2024-03-04,8,WEEK 72,505
SYNTH-ONC-001,RS,SYNTH-ONC-001-0177,610,OVRLRESP,Overall Response,SD,2024-05-27,9,WEEK 84,589
SYNTH-ONC-001,RS,SYNTH-ONC-001-0177,611,OVRLRESP,Overall Response,SD,2024-08-19,10,WEEK 96,673
SYNTH-ONC-001,RS,SYNTH-ONC-001-0177,612,OVRLRESP,Overall Response,SD,2024-11-11,11,WEEK 108,757
SYNTH-ONC-001,RS,SYNTH-ONC-001-0178,613,OVRLRESP,Overall Response,PD,2022-07-10,3,WEEK 12,85
SYNTH-ONC-001,RS,SYNTH-ONC-001-0178,614,OVRLRESP,Overall Response,PD,2022-10-02,4,WEEK 24,169
SYNTH-ONC-001,RS,SYNTH-ONC-001-0178,615,OVRLRESP,Overall Response,SD,2022-12-25,5,WEEK 36,253
SYNTH-ONC-001,RS,SYNTH-ONC-001-0178,616,OVRLRESP,Overall Response,PD,2023-03-19,6,WEEK 48,337
SYNTH-ONC-001,RS,SYNTH-ONC-001-0178,617,OVRLRESP,Overall Response,PD,2023-06-11,7,WEEK 60,421
SYNTH-ONC-001,RS,SYNTH-ONC-001-0179,618,OVRLRESP,Overall Response,SD,2021-08-16,3,WEEK 12,85
SYNTH-ONC-001,RS,SYNTH-ONC-001-0179,619,OVRLRESP,Overall Response,SD,2021-11-08,4,WEEK 24,169
SYNTH-ONC-001,RS,SYNTH-ONC-001-0179,620,OVRLRESP,Overall Response,SD,2022-01-31,5,WEEK 36,253
SYNTH-ONC-001,RS,SYNTH-ONC-001-0179,621,OVRLRESP,Overall Response,SD,2022-04-25,6,WEEK 48,337
SYNTH-ONC-001,RS,SYNTH-ONC-001-0179,622,OVRLRESP,Overall Response,SD,2022-07-18,7,WEEK 60,421
SYNTH-ONC-001,RS,SYNTH-ONC-001-0179,623,OVRLRESP,Overall Response,SD,2022-10-10,8,WEEK 72,505
SYNTH-ONC-001,RS,SYNTH-ONC-001-0179,624,OVRLRESP,Overall Response,SD,2023-01-02,9,WEEK 84,589
SYNTH-ONC-001,RS,SYNTH-ONC-001-0179,625,OVRLRESP,Overall Response,SD,2023-03-27,10,WEEK 96,673
SYNTH-ONC-001,RS,SYNTH-ONC-001-0179,626,OVRLRESP,Overall Response,PR,2023-06-19,11,WEEK 108,757
SYNTH-ONC-001,RS,SYNTH-ONC-001-0182,627,OVRLRESP,Overall Response,SD,2023-03-23,3,WEEK 12,85
SYNTH-ONC-001,RS,SYNTH-ONC-001-0183,628,OVRLRESP,Overall Response,PR,2021-05-16,3,WEEK 12,85
SYNTH-ONC-001,RS,SYNTH-ONC-001-0183,629,OVRLRESP,Overall Response,PR,2021-08-08,4,WEEK 24,169
SYNTH-ONC-001,RS,SYNTH-ONC-001-0183,630,OVRLRESP,Overall Response,PR,2021-10-31,5,WEEK 36,253
SYNTH-ONC-001,RS,SYNTH-ONC-001-0183,631,OVRLRESP,Overall Response,PR,2022-01-23,6,WEEK 48,337
SYNTH-ONC-001,RS,SYNTH-ONC-001-0183,632,OVRLRESP,Overall Response,PR,2022-04-17,7,WEEK 60,421
SYNTH-ONC-001,RS,SYNTH-ONC-001-0183,633,OVRLRESP,Overall Response,PR,2022-07-10,8,WEEK 72,505
SYNTH-ONC-001,RS,SYNTH-ONC-001-0183,634,OVRLRESP,Overall Response,PR,2022-10-02,9,WEEK 84,589
SYNTH-ONC-001,RS,SYNTH-ONC-001-0183,635,OVRLRESP,Overall Response,PR,2022-12-25,10,WEEK 96,673
SYNTH-ONC-001,RS,SYNTH-ONC-001-0183,636,OVRLRESP,Overall Response,PR,2023-03-19,11,WEEK 108,757
SYNTH-ONC-001,RS,SYNTH-ONC-001-0184,637,OVRLRESP,Overall Response,SD,2023-01-20,3,WEEK 12,85
SYNTH-ONC-001,RS,SYNTH-ONC-001-0184,638,OVRLRESP,Overall Response,SD,2023-04-14,4,WEEK 24,169
SYNTH-ONC-001,RS,SYNTH-ONC-001-0184,639,OVRLRESP,Overall Response,SD,2023-07-07,5,WEEK 36,253
SYNTH-ONC-001,RS,SYNTH-ONC-001-0184,640,OVRLRESP,Overall Response,PR,2023-09-29,6,WEEK 48,337
SYNTH-ONC-001,RS,SYNTH-ONC-001-0185,641,OVRLRESP,Overall Response,SD,2023-02-22,3,WEEK 12,85
SYNTH-ONC-001,RS,SYNTH-ONC-001-0186,642,OVRLRESP,Overall Response,SD,2022-10-22,3,WEEK 12,85
SYNTH-ONC-001,RS,SYNTH-ONC-001-0186,643,OVRLRESP,Overall Response,SD,2023-01-14,4,WEEK 24,169
SYNTH-ONC-001,RS,SYNTH-ONC-001-0186,644,OVRLRESP,Overall Response,SD,2023-04-08,5,WEEK 36,253
SYNTH-ONC-001,RS,SYNTH-ONC-001-0186,645,OVRLRESP,Overall Response,SD,2023-07-01,6,WEEK 48,337
SYNTH-ONC-001,RS,SYNTH-ONC-001-0186,646,OVRLRESP,Overall Response,SD,2023-09-23,7,WEEK 60,421
SYNTH-ONC-001,RS,SYNTH-ONC-001-0186,647,OVRLRESP,Overall Response,SD,2023-12-16,8,WEEK 72,505
SYNTH-ONC-001,RS,SYNTH-ONC-001-0186,648,OVRLRESP,Overall Response,PD,2024-03-09,9,WEEK 84,589
SYNTH-ONC-001,RS,SYNTH-ONC-001-0186,649,OVRLRESP,Overall Response,PD,2024-06-01,10,WEEK 96,673
SYNTH-ONC-001,RS,SYNTH-ONC-001-0186,650,OVRLRESP,Overall Response,PD,2024-08-24,11,WEEK 108,757
SYNTH-ONC-001,RS,SYNTH-ONC-001-0187,651,OVRLRESP,Overall Response,SD,2021-10-02,3,WEEK 12,85
SYNTH-ONC-001,RS,SYNTH-ONC-001-0187,652,OVRLRESP,Overall Response,PR,2021-12-25,4,WEEK 24,169
SYNTH-ONC-001,RS,SYNTH-ONC-001-0187,653,OVRLRESP,Overall Response,PR,2022-03-19,5,WEEK 36,253
SYNTH-ONC-001,RS,SYNTH-ONC-001-0187,654,OVRLRESP,Overall Response,PR,2022-06-11,6,WEEK 48,337
SYNTH-ONC-001,RS,SYNTH-ONC-001-0187,655,OVRLRESP,Overall Response,PR,2022-09-03,7,WEEK 60,421
SYNTH-ONC-001,RS,SYNTH-ONC-001-0187,656,OVRLRESP,Overall Response,PR,2022-11-26,8,WEEK 72,505
SYNTH-ONC-001,RS,SYNTH-ONC-001-0187,657,OVRLRESP,Overall Response,PR,2023-02-18,9,WEEK 84,589
SYNTH-ONC-001,RS,SYNTH-ONC-001-0188,658,OVRLRESP,Overall Response,SD,2021-07-29,3,WEEK 12,85
SYNTH-ONC-001,RS,SYNTH-ONC-001-0188,659,OVRLRESP,Overall Response,SD,2021-10-21,4,WEEK 24,169
SYNTH-ONC-001,RS,SYNTH-ONC-001-0188,660,OVRLRESP,Overall Response,PR,2022-01-13,5,WEEK 36,253
SYNTH-ONC-001,RS,SYNTH-ONC-001-0188,661,OVRLRESP,Overall Response,PR,2022-04-07,6,WEEK 48,337
SYNTH-ONC-001,RS,SYNTH-ONC-001-0188,662,OVRLRESP,Overall Response,PR,2022-06-30,7,WEEK 60,421
SYNTH-ONC-001,RS,SYNTH-ONC-001-0188,663,OVRLRESP,Overall Response,PR,2022-09-22,8,WEEK 72,505
SYNTH-ONC-001,RS,SYNTH-ONC-001-0188,664,OVRLRESP,Overall Response,PR,2022-12-15,9,WEEK 84,589
SYNTH-ONC-001,RS,SYNTH-ONC-001-0189,665,OVRLRESP,Overall Response,PD,2021-08-23,3,WEEK 12,85
SYNTH-ONC-001,RS,SYNTH-ONC-001-0189,666,OVRLRESP,Overall Response,PD,2021-11-15,4,WEEK 24,169
SYNTH-ONC-001,RS,SYNTH-ONC-001-0189,667,OVRLRESP,Overall Response,PD,2022-02-07,5,WEEK 36,253
SYNTH-ONC-001,RS,SYNTH-ONC-001-0189,668,OVRLRESP,Overall Response,PD,2022-05-02,6,WEEK 48,337
SYNTH-ONC-001,RS,SYNTH-ONC-001-0189,669,OVRLRESP,Overall Response,PD,2022-07-25,7,WEEK 60,421
SYNTH-ONC-001,RS,SYNTH-ONC-001-0189,670,OVRLRESP,Overall Response,PD,2022-10-17,8,WEEK 72,505
SYNTH-ONC-001,RS,SYNTH-ONC-001-0189,671,OVRLRESP,Overall Response,PD,2023-01-09,9,WEEK 84,589
SYNTH-ONC-001,RS,SYNTH-ONC-001-0189,672,OVRLRESP,Overall Response,PD,2023-04-03,10,WEEK 96,673
SYNTH-ONC-001,RS,SYNTH-ONC-001-0189,673,OVRLRESP,Overall Response,PD,2023-06-26,11,WEEK 108,757
SYNTH-ONC-001,RS,SYNTH-ONC-001-0190,674,OVRLRESP,Overall Response,SD,2022-02-03,3,WEEK 12,85
SYNTH-ONC-001,RS,SYNTH-ONC-001-0190,675,OVRLRESP,Overall Response,SD,2022-04-28,4,WEEK 24,169
SYNTH-ONC-001,RS,SYNTH-ONC-001-0190,676,OVRLRESP,Overall Response,SD,2022-07-21,5,WEEK 36,253
SYNTH-ONC-001,RS,SYNTH-ONC-001-0191,677,OVRLRESP,Overall Response,PD,2022-10-17,3,WEEK 12,85
SYNTH-ONC-001,RS,SYNTH-ONC-001-0191,678,OVRLRESP,Overall Response,SD,2023-01-09,4,WEEK 24,169
SYNTH-ONC-001,RS,SYNTH-ONC-001-0191,679,OVRLRESP,Overall Response,SD,2023-04-03,5,WEEK 36,253
SYNTH-ONC-001,RS,SYNTH-ONC-001-0191,680,OVRLRESP,Overall Response,SD,2023-06-26,6,WEEK 48,337
SYNTH-ONC-001,RS,SYNTH-ONC-001-0191,681,OVRLRESP,Overall Response,SD,2023-09-18,7,WEEK 60,421
SYNTH-ONC-001,RS,SYNTH-ONC-001-0191,682,OVRLRESP,Overall Response,PD,2023-12-11,8,WEEK 72,505
SYNTH-ONC-001,RS,SYNTH-ONC-001-0191,683,OVRLRESP,Overall Response,PD,2024-03-04,9,WEEK 84,589
SYNTH-ONC-001,RS,SYNTH-ONC-001-0191,684,OVRLRESP,Overall Response,SD,2024-05-27,10,WEEK 96,673
SYNTH-ONC-001,RS,SYNTH-ONC-001-0191,685,OVRLRESP,Overall Response,PD,2024-08-19,11,WEEK 108,757
SYNTH-ONC-001,RS,SYNTH-ONC-001-0192,686,OVRLRESP,Overall Response,SD,2022-03-03,3,WEEK 12,85
SYNTH-ONC-001,RS,SYNTH-ONC-001-0192,687,OVRLRESP,Overall Response,PD,2022-05-26,4,WEEK 24,169
SYNTH-ONC-001,RS,SYNTH-ONC-001-0192,688,OVRLRESP,Overall Response,SD,2022-08-18,5,WEEK 36,253
SYNTH-ONC-001,RS,SYNTH-ONC-001-0193,689,OVRLRESP,Overall Response,SD,2022-01-25,3,WEEK 12,85
SYNTH-ONC-001,RS,SYNTH-ONC-001-0193,690,OVRLRESP,Overall Response,SD,2022-04-19,4,WEEK 24,169
SYNTH-ONC-001,RS,SYNTH-ONC-001-0193,691,OVRLRESP,Overall Response,SD,2022-07-12,5,WEEK 36,253
SYNTH-ONC-001,RS,SYNTH-ONC-001-0193,692,OVRLRESP,Overall Response,PD,2022-10-04,6,WEEK 48,337
SYNTH-ONC-001,RS,SYNTH-ONC-001-0194,693,OVRLRESP,Overall Response,SD,2023-02-16,3,WEEK 12,85
SYNTH-ONC-001,RS,SYNTH-ONC-001-0194,694,OVRLRESP,Overall Response,SD,2023-05-11,4,WEEK 24,169
SYNTH-ONC-001,RS,SYNTH-ONC-001-0194,695,OVRLRESP,Overall Response,PD,2023-08-03,5,WEEK 36,253
SYNTH-ONC-001,RS,SYNTH-ONC-001-0196,696,OVRLRESP,Overall Response,PD,2021-05-19,3,WEEK 12,85
SYNTH-ONC-001,RS,SYNTH-ONC-001-0196,697,OVRLRESP,Overall Response,SD,2021-08-11,4,WEEK 24,169
SYNTH-ONC-001,RS,SYNTH-ONC-001-0197,698,OVRLRESP,Overall Response,SD,2022-06-13,3,WEEK 12,85
SYNTH-ONC-001,RS,SYNTH-ONC-001-0197,699,OVRLRESP,Overall Response,SD,2022-09-05,4,WEEK 24,169
SYNTH-ONC-001,RS,SYNTH-ONC-001-0197,700,OVRLRESP,Overall Response,SD,2022-11-28,5,WEEK 36,253
SYNTH-ONC-001,RS,SYNTH-ONC-001-0198,701,OVRLRESP,Overall Response,SD,2022-11-29,3,WEEK 12,85
SYNTH-ONC-001,RS,SYNTH-ONC-001-0198,702,OVRLRESP,Overall Response,PD,2023-02-21,4,WEEK 24,169
SYNTH-ONC-001,RS,SYNTH-ONC-001-0198,703,OVRLRESP,Overall Response,PD,2023-05-16,5,WEEK 36,253
SYNTH-ONC-001,RS,SYNTH-ONC-001-0198,704,OVRLRESP,Overall Response,PD,2023-08-08,6,WEEK 48,337
SYNTH-ONC-001,RS,SYNTH-ONC-001-0198,705,OVRLRESP,Overall Response,PD,2023-10-31,7,WEEK 60,421
SYNTH-ONC-001,RS,SYNTH-ONC-001-0200,706,OVRLRESP,Overall Response,SD,2021-05-18,3,WEEK 12,85
SYNTH-ONC-001,RS,SYNTH-ONC-001-0200,707,OVRLRESP,Overall Response,SD,2021-08-10,4,WEEK 24,169
