STUDYID,DOMAIN,USUBJID,TRSEQ,TRTESTCD,TRTEST,TRSTRESN,TRSTRESU,TRDTC,VISITNUM,VISIT,TRDY,ABLFL
SYNTH-ONC-001,TR,SYNTH-ONC-001-0001,1,DIAM,Diameter,46.5,mm,2022-02-08,2,BASELINE,1,Y
SYNTH-ONC-001,TR,SYNTH-ONC-001-0001,2,DIAM,Diameter,52.9,mm,2022-05-03,3,WEEK 12,85,
SYNTH-ONC-001,TR,SYNTH-ONC-001-0001,3,DIAM,Diameter,71.93,mm,2022-07-26,4,WEEK 24,169,
SYNTH-ONC-001,TR,SYNTH-ONC-001-0001,4,DIAM,Diameter,79.44,mm,2022-10-18,5,WEEK 36,253,
SYNTH-ONC-001,TR,SYNTH-ONC-001-0001,5,DIAM,Diameter,84.42,mm,2023-01-10,6,WEEK 48,337,
SYNTH-ONC-001,TR,SYNTH-ONC-001-0001,6,DIAM,Diameter,99.21,mm,2023-04-04,7,WEEK 60,421,
SYNTH-ONC-001,TR,SYNTH-ONC-001-0002,7,DIAM,Diameter,61.25,mm,2022-10-01,2,BASELINE,1,Y
SYNTH-ONC-001,TR,SYNTH-ONC-001-0003,8,DIAM,Diameter,42.01,mm,2021-05-11,2,BASELINE,1,Y
SYNTH-ONC-001,TR,SYNTH-ONC-001-0003,9,DIAM,Diameter,32.36,mm,2021-08-03,3,WEEK 12,85,
SYNTH-ONC-001,TR,SYNTH-ONC-001-0003,10,DIAM,Diameter,6.62,mm,2021-10-26,4,WEEK 24,169,
SYNTH-ONC-001,TR,SYNTH-ONC-001-0003,11,DIAM,Diameter,1.0,mm,2022-01-18,5,WEEK 36,253,
SYNTH-ONC-001,TR,SYNTH-ONC-001-0003,12,DIAM,Diameter,1.0,mm,2022-04-12,6,WEEK 48,337,
SYNTH-ONC-001,TR,SYNTH-ONC-001-0003,13,DIAM,Diameter,1.0,mm,2022-07-05,7,WEEK 60,421,
SYNTH-ONC-001,TR,SYNTH-ONC-001-0004,14,DIAM,Diameter,52.73,mm,2021-02-23,2,BASELINE,1,Y
SYNTH-ONC-001,TR,SYNTH-ONC-001-0004,15,DIAM,Diameter,54.63,mm,2021-05-18,3,WEEK 12,85,
SYNTH-ONC-001,TR,SYNTH-ONC-001-0005,16,DIAM,Diameter,55.36,mm,2022-11-16,2,BASELINE,1,Y
SYNTH-ONC-001,TR,SYNTH-ONC-001-0005,17,DIAM,Diameter,53.97,mm,2023-02-08,3,WEEK 12,85,
SYNTH-ONC-001,TR,SYNTH-ONC-001-0006,18,DIAM,Diameter,40.6,mm,2023-01-01,2,BASELINE,1,Y
SYNTH-ONC-001,TR,SYNTH-ONC-001-0006,19,DIAM,Diameter,54.42,mm,2023-03-26,3,WEEK 12,85,
SYNTH-ONC-001,TR,SYNTH-ONC-001-0007,20,DIAM,Diameter,45.04,mm,2022-11-04,2,BASELINE,1,Y
SYNTH-ONC-001,TR,SYNTH-ONC-001-0007,21,DIAM,Diameter,52.32,mm,2023-01-27,3,WEEK 12,85,
SYNTH-ONC-001,TR,SYNTH-ONC-001-0007,22,DIAM,Diameter,65.81,mm,2023-04-21,4,WEEK 24,169,
SYNTH-ONC-001,TR,SYNTH-ONC-001-0007,23,DIAM,Diameter,69.11,mm,2023-07-14,5,WEEK 36,253,
SYNTH-ONC-001,TR,SYNTH-ONC-001-0008,24,DIAM,Diameter,41.44,mm,2022-12-12,2,BASELINE,1,Y
SYNTH-ONC-001,TR,SYNTH-ONC-001-0008,25,DIAM,Diameter,42.01,mm,2023-03-06,3,WEEK 12,85,
SYNTH-ONC-001,TR,SYNTH-ONC-001-0008,26,DIAM,Diameter,52.15,mm,2023-05-29,4,WEEK 24,169,
SYNTH-ONC-001,TR,SYNTH-ONC-001-0009,27,DIAM,Diameter,52.06,mm,2022-02-21,2,BASELINE,1,Y
SYNTH-ONC-001,TR,SYNTH-ONC-001-0009,28,DIAM,Diameter,44.42,mm,2022-05-16,3,WEEK 12,85,
SYNTH-ONC-001,TR,SYNTH-ONC-001-0009,29,DIAM,Diameter,51.19,mm,2022-08-08,4,WEEK 24,169,
SYNTH-ONC-001,TR,SYNTH-ONC-001-0009,30,DIAM,Diameter,59.35,mm,2022-10-31,5,WEEK 36,253,
SYNTH-ONC-001,TR,SYNTH-ONC-001-0009,31,DIAM,Diameter,58.51,mm,2023-01-23,6,WEEK 48,337,
SYNTH-ONC-001,TR,SYNTH-ONC-001-0009,32,DIAM,Diameter,65.39,mm,2023-04-17,7,WEEK 60,421,
SYNTH-ONC-001,TR,SYNTH-ONC-001-0009,33,DIAM,Diameter,69.35,mm,2023-07-10,8,WEEK 72,505,
SYNTH-ONC-001,TR,SYNTH-ONC-001-0009,34,DIAM,Diameter,69.77,mm,2023-10-02,9,WEEK 84,589,
SYNTH-ONC-001,TR,SYNTH-ONC-001-0009,35,DIAM,Diameter,61.42,mm,2023-12-25,10,WEEK 96,673,
SYNTH-ONC-001,TR,SYNTH-ONC-001-0009,36,DIAM,Diameter,72.05,mm,2024-03-18,11,WEEK 108,757,
SYNTH-ONC-001,TR,SYNTH-ONC-001-0010,37,DIAM,Diameter,57.59,mm,2021-09-05,2,BASELINE,1,Y
SYNTH-ONC-001,TR,SYNTH-ONC-001-0010,38,DIAM,Diameter,64.26,mm,2021-11-28,3,WEEK 12,85,
SYNTH-ONC-001,TR,SYNTH-ONC-001-0010,39,DIAM,Diameter,78.62,mm,2022-02-20,4,WEEK 24,169,
SYNTH-ONC-001,TR,SYNTH-ONC-001-0011,40,DIAM,Diameter,59.45,mm,2022-03-16,2,BASELINE,1,Y
SYNTH-ONC-001,TR,SYNTH-ONC-001-0011,41,DIAM,Diameter,52.94,mm,2022-06-08,3,WEEK 12,85,
SYNTH-ONC-001,TR,SYNTH-ONC-001-0011,42,DIAM,Diameter,23.24,mm,2022-08-31,4,WEEK 24,169,
SYNTH-ONC-001,TR,SYNTH-ONC-001-0011,43,DIAM,Diameter,20.81,mm,2022-11-23,5,WEEK 36,253,
SYNTH-ONC-001,TR,SYNTH-ONC-001-0011,44,DIAM,Diameter,9.48,mm,2023-02-15,6,WEEK 48,337,
SYNTH-ONC-001,TR,SYNTH-ONC-001-0011,45,DIAM,Diameter,1.0,mm,2023-05-10,7,WEEK 60,421,
SYNTH-ONC-001,TR,SYNTH-ONC-001-0011,46,DIAM,Diameter,1.0,mm,2023-08-02,8,WEEK 72,505,
SYNTH-ONC-001,TR,SYNTH-ONC-001-0011,47,DIAM,Diameter,1.0,mm,2023-10-25,9,WEEK 84,589,
SYNTH-ONC-001,TR,SYNTH-ONC-001-0011,48,DIAM,Diameter,1.0,mm,2024-01-17,10,WEEK 96,673,
SYNTH-ONC-001,TR,SYNTH-ONC-001-0011,49,DIAM,Diameter,1.0,mm,2024-04-10,11,WEEK 108,757,
SYNTH-ONC-001,TR,SYNTH-ONC-001-0012,50,DIAM,Diameter,54.75,mm,2021-07-23,2,BASELINE,1,Y
SYNTH-ONC-001,TR,SYNTH-ONC-001-0013,51,DIAM,Diameter,52.32,mm,2021-07-04,2,BASELINE,1,Y
SYNTH-ONC-001,TR,SYNTH-ONC-001-0014,52,DIAM,Diameter,16.48,mm,2021-05-04,2,BASELINE,1,Y
SYNTH-ONC-001,TR,SYNTH-ONC-001-0015,53,DIAM,Diameter,47.12,mm,2022-02-06,2,BASELINE,1,Y
SYNTH-ONC-001,TR,SYNTH-ONC-001-0015,54,DIAM,Diameter,27.59,mm,2022-05-01,3,WEEK 12,85,
SYNTH-ONC-001,TR,SYNTH-ONC-001-0016,55,DIAM,Diameter,62.11,mm,2021-10-22,2,BASELINE,1,Y
SYNTH-ONC-001,TR,SYNTH-ONC-001-0017,56,DIAM,Diameter,56.19,mm,2021-10-08,2,BASELINE,1,Y
SYNTH-ONC-001,TR,SYNTH-ONC-001-0017,57,DIAM,Diameter,40.53,mm,2021-12-31,3,WEEK 12,85,
SYNTH-ONC-001,TR,SYNTH-ONC-001-0017,58,DIAM,Diameter,25.66,mm,2022-03-25,4,WEEK 24,169,
SYNTH-ONC-001,TR,SYNTH-ONC-001-0017,59,DIAM,Diameter,10.51,mm,2022-06-17,5,WEEK 36,253,
SYNTH-ONC-001,TR,SYNTH-ONC-001-0017,60,DIAM,Diameter,1.0,mm,2022-09-09,6,WEEK 48,337,
SYNTH-ONC-001,TR,SYNTH-ONC-001-0017,61,DIAM,Diameter,1.0,mm,2022-12-02,7,WEEK 60,421,
SYNTH-ONC-001,TR,SYNTH-ONC-001-0017,62,DIAM,Diameter,1.0,mm,2023-02-24,8,WEEK 72,505,
SYNTH-ONC-001,TR,SYNTH-ONC-001-0017,63,DIAM,Diameter,1.0,mm,2023-05-19,9,WEEK 84,589,
SYNTH-ONC-001,TR,SYNTH-ONC-001-0017,64,DIAM,Diameter,1.0,mm,2023-08-11,10,WEEK 96,673,
SYNTH-ONC-001,TR,SYNTH-ONC-001-0017,65,DIAM,Diameter,1.0,mm,2023-11-03,11,WEEK 108,757,
SYNTH-ONC-001,TR,SYNTH-ONC-001-0018,66,DIAM,Diameter,53.03,mm,2022-09-03,2,BASELINE,1,Y
SYNTH-ONC-001,TR,SYNTH-ONC-001-0019,67,DIAM,Diameter,57.34,mm,2021-07-18,2,BASELINE,1,Y
SYNTH-ONC-001,TR,SYNTH-ONC-001-0019,68,DIAM,Diameter,51.4,mm,2021-10-10,3,WEEK 12,85,
SYNTH-ONC-001,TR,SYNTH-ONC-001-0020,69,DIAM,Diameter,49.8,mm,2022-05-27,2,BASELINE,1,Y
SYNTH-ONC-001,TR,SYNTH-ONC-001-0020,70,DIAM,Diameter,46.47,mm,2022-08-19,3,WEEK 12,85,
SYNTH-ONC-001,TR,SYNTH-ONC-001-0020,71,DIAM,Diameter,61.32,mm,2022-11-11,4,WEEK 24,169,
SYNTH-ONC-001,TR,SYNTH-ONC-001-0020,72,DIAM,Diameter,75.82,mm,2023-02-03,5,WEEK 36,253,
SYNTH-ONC-001,TR,SYNTH-ONC-001-0021,73,DIAM,Diameter,40.08,mm,2021-05-25,2,BASELINE,1,Y
SYNTH-ONC-001,TR,SYNTH-ONC-001-0022,74,DIAM,Diameter,53.86,mm,2022-09-02,2,BASELINE,1,Y
SYNTH-ONC-001,TR,SYNTH-ONC-001-0023,75,DIAM,Diameter,60.68,mm,2021-07-21,2,BASELINE,1,Y
SYNTH-ONC-001,TR,SYNTH-ONC-001-0023,76,DIAM,Diameter,69.46,mm,2021-10-13,3,WEEK 12,85,
SYNTH-ONC-001,TR,SYNTH-ONC-001-0023,77,DIAM,Diameter,72.12,mm,2022-01-05,4,WEEK 24,169,
SYNTH-ONC-001,TR,SYNTH-ONC-001-0023,78,DIAM,Diameter,84.57,mm,2022-03-30,5,WEEK 36,253,
SYNTH-ONC-001,TR,SYNTH-ONC-001-0023,79,DIAM,Diameter,79.33,mm,2022-06-22,6,WEEK 48,337,
SYNTH-ONC-001,TR,SYNTH-ONC-001-0023,80,DIAM,Diameter,78.91,mm,2022-09-14,7,WEEK 60,421,
SYNTH-ONC-001,TR,SYNTH-ONC-001-0024,81,DIAM,Diameter,41.22,mm,2021-05-05,2,BASELINE,1,Y
SYNTH-ONC-001,TR,SYNTH-ONC-001-0024,82,DIAM,Diameter,49.48,mm,2021-07-28,3,WEEK 12,85,
SYNTH-ONC-001,TR,SYNTH-ONC-001-0024,83,DIAM,Diameter,46.82,mm,2021-10-20,4,WEEK 24,169,
SYNTH-ONC-001,TR,SYNTH-ONC-001-0024,84,DIAM,Diameter,47.45,mm,2022-01-12,5,WEEK 36,253,
SYNTH-ONC-001,TR,SYNTH-ONC-001-0024,85,DIAM,Diameter,54.39,mm,2022-04-06,6,WEEK 48,337,
SYNTH-ONC-001,TR,SYNTH-ONC-001-0024,86,DIAM,Diameter,61.98,mm,2022-06-29,7,WEEK 60,421,
SYNTH-ONC-001,TR,SYNTH-ONC-001-0024,87,DIAM,Diameter,56.72,mm,2022-09-21,8,WEEK 72,505,
SYNTH-ONC-001,TR,SYNTH-ONC-001-0024,88,DIAM,Diameter,67.18,mm,2022-12-14,9,WEEK 84,589,
SYNTH-ONC-001,TR,SYNTH-ONC-001-0024,89,DIAM,Diameter,72.82,mm,2023-03-08,10,WEEK 96,673,
SYNTH-ONC-001,TR,SYNTH-ONC-001-0024,90,DIAM,Diameter,66.17,mm,2023-05-31,11,WEEK 108,757,
SYNTH-ONC-001,TR,SYNTH-ONC-001-0025,91,DIAM,Diameter,36.72,mm,2021-07-07,2,BASELINE,1,Y
SYNTH-ONC-001,TR,SYNTH-ONC-001-0025,92,DIAM,Diameter,38.6,mm,2021-09-29,3,WEEK 12,85,
SYNTH-ONC-001,TR,SYNTH-ONC-001-0025,93,DIAM,Diameter,47.4,mm,2021-12-22,4,WEEK 24,169,
SYNTH-ONC-001,TR,SYNTH-ONC-001-0025,94,DIAM,Diameter,56.4,mm,2022-03-16,5,WEEK 36,253,
SYNTH-ONC-001,TR,SYNTH-ONC-001-0025,95,DIAM,Diameter,61.25,mm,2022-06-08,6,WEEK 48,337,
SYNTH-ONC-001,TR,SYNTH-ONC-001-0025,96,DIAM,Diameter,63.64,mm,2022-08-31,7,WEEK 60,421,
SYNTH-ONC-001,TR,SYNTH-ONC-001-0025,97,DIAM,Diameter,69.74,mm,2022-11-23,8,WEEK 72,505,
SYNTH-ONC-001,TR,SYNTH-ONC-001-0025,98,DIAM,Diameter,64.89,mm,2023-02-15,9,WEEK 84,589,
SYNTH-ONC-001,TR,SYNTH-ONC-001-0025,99,DIAM,Diameter,80.39,mm,2023-05-10,10,WEEK 96,673,
SYNTH-ONC-001,TR,SYNTH-ONC-001-0025,100,DIAM,Diameter,95.78,mm,2023-08-02,11,WEEK 108,757,
SYNTH-ONC-001,TR,SYNTH-ONC-001-0026,101,DIAM,Diameter,54.29,mm,2021-11-23,2,BASELINE,1,Y
SYNTH-ONC-001,TR,SYNTH-ONC-001-0027,102,DIAM,Diameter,51.97,mm,2022-04-10,2,BASELINE,1,Y
SYNTH-ONC-001,TR,SYNTH-ONC-001-0027,103,DIAM,Diameter,50.68,mm,2022-07-03,3,WEEK 12,85,
SYNTH-ONC-001,TR,SYNTH-ONC-001-0027,104,DIAM,Diameter,56.91,mm,2022-09-25,4,WEEK 24,169,
SYNTH-ONC-001,TR,SYNTH-ONC-001-0027,105,DIAM,Diameter,53.38,mm,2022-12-18,5,WEEK 36,253,
SYNTH-ONC-001,TR,SYNTH-ONC-001-0027,106,DIAM,Diameter,37.59,mm,2023-03-12,6,WEEK 48,337,
SYNTH-ONC-001,TR,SYNTH-ONC-001-0027,107,DIAM,Diameter,17.88,mm,2023-06-04,7,WEEK 60,421,
SYNTH-ONC-001,TR,SYNTH-ONC-001-0027,108,DIAM,Diameter,13.48,mm,2023-08-27,8,WEEK 72,505,
SYNTH-ONC-001,TR,SYNTH-ONC-001-0028,109,DIAM,Diameter,51.56,mm,2021-12-16,2,BASELINE,1,Y
SYNTH-ONC-001,TR,SYNTH-ONC-001-0029,110,DIAM,Diameter,53.32,mm,2022-10-23,2,BASELINE,1,Y
SYNTH-ONC-001,TR,SYNTH-ONC-001-0029,111,DIAM,Diameter,51.43,mm,2023-01-15,3,WEEK 12,85,
SYNTH-ONC-001,TR,SYNTH-ONC-001-0029,112,DIAM,Diameter,54.56,mm,2023-04-09,4,WEEK 24,169,
SYNTH-ONC-001,TR,SYNTH-ONC-001-0029,113,DIAM,Diameter,54.37,mm,2023-07-02,5,WEEK 36,253,
SYNTH-ONC-001,TR,SYNTH-ONC-001-0029,114,DIAM,Diameter,48.37,mm,2023-09-24,6,WEEK 48,337,
SYNTH-ONC-001,TR,SYNTH-ONC-001-0029,115,DIAM,Diameter,49.94,mm,2023-12-17,7,WEEK 60,421,
SYNTH-ONC-001,TR,SYNTH-ONC-001-0029,116,DIAM,Diameter,58.45,mm,2024-03-10,8,WEEK 72,505,
SYNTH-ONC-001,TR,SYNTH-ONC-001-0029,117,DIAM,Diameter,52.81,mm,2024-06-02,9,WEEK 84,589,
SYNTH-ONC-001,TR,SYNTH-ONC-001-0029,118,DIAM,Diameter,47.18,mm,2024-08-25,10,WEEK 96,673,
SYNTH-ONC-001,TR,SYNTH-ONC-001-0029,119,DIAM,Diameter,40.63,mm,2024-11-17,11,WEEK 108,757,
SYNTH-ONC-001,TR,SYNTH-ONC-001-0030,120,DIAM,Diameter,30.63,mm,2022-02-08,2,BASELINE,1,Y
SYNTH-ONC-001,TR,SYNTH-ONC-001-0030,121,DIAM,Diameter,28.79,mm,2022-05-03,3,WEEK 12,85,
SYNTH-ONC-001,TR,SYNTH-ONC-001-0030,122,DIAM,Diameter,36.51,mm,2022-07-26,4,WEEK 24,169,
SYNTH-ONC-001,TR,SYNTH-ONC-001-0030,123,DIAM,Diameter,39.9,mm,2022-10-18,5,WEEK 36,253,
SYNTH-ONC-001,TR,SYNTH-ONC-001-0030,124,DIAM,Diameter,40.54,mm,2023-01-10,6,WEEK 48,337,
SYNTH-ONC-001,TR,SYNTH-ONC-001-0031,125,DIAM,Diameter,51.29,mm,2021-12-13,2,BASELINE,1,Y
SYNTH-ONC-001,TR,SYNTH-ONC-001-0031,126,DIAM,Diameter,49.38,mm,2022-03-07,3,WEEK 12,85,
SYNTH-ONC-001,TR,SYNTH-ONC-001-0032,127,DIAM,Diameter,30.52,mm,2022-05-27,2,BASELINE,1,Y
SYNTH-ONC-001,TR,SYNTH-ONC-001-0032,128,DIAM,Diameter,38.79,mm,2022-08-19,3,WEEK 12,85,
SYNTH-ONC-001,TR,SYNTH-ONC-001-0032,129,DIAM,Diameter,49.36,mm,2022-11-11,4,WEEK 24,169,
SYNTH-ONC-001,TR,SYNTH-ONC-001-0033,130,DIAM,Diameter,42.72,mm,2021-05-28,2,BASELINE,1,Y
SYNTH-ONC-001,TR,SYNTH-ONC-001-0033,131,DIAM,Diameter,43.51,mm,2021-08-20,3,WEEK 12,85,
SYNTH-ONC-001,TR,SYNTH-ONC-001-0033,132,DIAM,Diameter,43.62,mm,2021-11-12,4,WEEK 24,169,
SYNTH-ONC-001,TR,SYNTH-ONC-001-0034,133,DIAM,Diameter,53.51,mm,2021-05-29,2,BASELINE,1,Y
SYNTH-ONC-001,TR,SYNTH-ONC-001-0034,134,DIAM,Diameter,69.03,mm,2021-08-21,3,WEEK 12,85,
SYNTH-ONC-001,TR,SYNTH-ONC-001-0034,135,DIAM,Diameter,80.31,mm,2021-11-13,4,WEEK 24,169,
SYNTH-ONC-001,TR,SYNTH-ONC-001-0034,136,DIAM,Diameter,79.3,mm,2022-02-05,5,WEEK 36,253,
SYNTH-ONC-001,TR,SYNTH-ONC-001-0034,137,DIAM,Diameter,85.63,mm,2022-04-30,6,WEEK 48,337,
SYNTH-ONC-001,TR,SYNTH-ONC-001-0034,138,DIAM,Diameter,97.67,mm,2022-07-23,7,WEEK 60,421,
SYNTH-ONC-001,TR,SYNTH-ONC-001-0034,139,DIAM,Diameter,102.94,mm,2022-10-15,8,WEEK 72,505,
SYNTH-ONC-001,TR,SYNTH-ONC-001-0034,140,DIAM,Diameter,104.9,mm,2023-01-07,9,WEEK 84,589,
SYNTH-ONC-001,TR,SYNTH-ONC-001-0035,141,DIAM,Diameter,54.46,mm,2022-12-13,2,BASELINE,1,Y
SYNTH-ONC-001,TR,SYNTH-ONC-001-0035,142,DIAM,Diameter,50.83,mm,2023-03-07,3,WEEK 12,85,
SYNTH-ONC-001,TR,SYNTH-ONC-001-0035,143,DIAM,Diameter,48.38,mm,2023-05-30,4,WEEK 24,169,
SYNTH-ONC-001,TR,SYNTH-ONC-001-0036,144,DIAM,Diameter,39.36,mm,2022-05-05,2,BASELINE,1,Y
SYNTH-ONC-001,TR,SYNTH-ONC-001-0036,145,DIAM,Diameter,43.82,mm,2022-07-28,3,WEEK 12,85,
SYNTH-ONC-001,TR,SYNTH-ONC-001-0037,146,DIAM,Diameter,48.69,mm,2022-10-03,2,BASELINE,1,Y
SYNTH-ONC-001,TR,SYNTH-ONC-001-0038,147,DIAM,Diameter,41.77,mm,2022-07-06,2,BASELINE,1,Y
SYNTH-ONC-001,TR,SYNTH-ONC-001-0038,148,DIAM,Diameter,42.46,mm,2022-09-28,3,WEEK 12,85,
SYNTH-ONC-001,TR,SYNTH-ONC-001-0038,149,DIAM,Diameter,48.22,mm,2022-12-21,4,WEEK 24,169,
SYNTH-ONC-001,TR,SYNTH-ONC-001-0038,150,DIAM,Diameter,65.53,mm,2023-03-15,5,WEEK 36,253,
SYNTH-ONC-001,TR,SYNTH-ONC-001-0039,151,DIAM,Diameter,60.12,mm,2021-12-05,2,BASELINE,1,Y
SYNTH-ONC-001,TR,SYNTH-ONC-001-0039,152,DIAM,Diameter,43.85,mm,2022-02-27,3,WEEK 12,85,
SYNTH-ONC-001,TR,SYNTH-ONC-001-0040,153,DIAM,Diameter,52.39,mm,2022-10-04,2,BASELINE,1,Y
SYNTH-ONC-001,TR,SYNTH-ONC-001-0040,154,DIAM,Diameter,65.83,mm,2022-12-27,3,WEEK 12,85,
SYNTH-ONC-001,TR,SYNTH-ONC-001-0040,155,DIAM,Diameter,57.12,mm,2023-03-21,4,WEEK 24,169,
SYNTH-ONC-001,TR,SYNTH-ONC-001-0040,156,DIAM,Diameter,63.54,mm,2023-06-13,5,WEEK 36,253,
SYNTH-ONC-001,TR,SYNTH-ONC-001-0040,157,DIAM,Diameter,63.64,mm,2023-09-05,6,WEEK 48,337,
SYNTH-ONC-001,TR,SYNTH-ONC-001-0040,158,DIAM,Diameter,74.85,mm,2023-11-28,7,WEEK 60,421,
SYNTH-ONC-001,TR,SYNTH-ONC-001-0040,159,DIAM,Diameter,80.08,mm,2024-02-20,8,WEEK 72,505,
SYNTH-ONC-001,TR,SYNTH-ONC-001-0040,160,DIAM,Diameter,75.01,mm,2024-05-14,9,WEEK 84,589,
SYNTH-ONC-001,TR,SYNTH-ONC-001-0040,161,DIAM,Diameter,75.4,mm,2024-08-06,10,WEEK 96,673,
SYNTH-ONC-001,TR,SYNTH-ONC-001-0040,162,DIAM,Diameter,76.27,mm,2024-10-29,11,WEEK 108,757,
SYNTH-ONC-001,TR,SYNTH-ONC-001-0041,163,DIAM,Diameter,48.77,mm,2022-04-19,2,BASELINE,1,Y
SYNTH-ONC-001,TR,SYNTH-ONC-001-0041,164,DIAM,Diameter,59.72,mm,2022-07-12,3,WEEK 12,85,
SYNTH-ONC-001,TR,SYNTH-ONC-001-0041,165,DIAM,Diameter,54.98,mm,2022-10-04,4,WEEK 24,169,
SYNTH-ONC-001,TR,SYNTH-ONC-001-0041,166,DIAM,Diameter,65.01,mm,2022-12-27,5,WEEK 36,253,
SYNTH-ONC-001,TR,SYNTH-ONC-001-0041,167,DIAM,Diameter,64.59,mm,2023-03-21,6,WEEK 48,337,
SYNTH-ONC-001,TR,SYNTH-ONC-001-0041,168,DIAM,Diameter,68.38,mm,2023-06-13,7,WEEK 60,421,
SYNTH-ONC-001,TR,SYNTH-ONC-001-0041,169,DIAM,Diameter,70.95,mm,2023-09-05,8,WEEK 72,505,
SYNTH-ONC-001,TR,SYNTH-ONC-001-0041,170,DIAM,Diameter,72.78,mm,2023-11-28,9,WEEK 84,589,
SYNTH-ONC-001,TR,SYNTH-ONC-001-0041,171,DIAM,Diameter,74.67,mm,2024-02-20,10,WEEK 96,673,
SYNTH-ONC-001,TR,SYNTH-ONC-001-0041,172,DIAM,Diameter,88.33,mm,2024-05-14,11,WEEK 108,757,
SYNTH-ONC-001,TR,SYNTH-ONC-001-0042,173,DIAM,Diameter,58.42,mm,2021-06-01,2,BASELINE,1,Y
SYNTH-ONC-001,TR,SYNTH-ONC-001-0043,174,DIAM,Diameter,46.37,mm,2022-02-20,2,BASELINE,1,Y
SYNTH-ONC-001,TR,SYNTH-ONC-001-0043,175,DIAM,Diameter,61.04,mm,2022-05-15,3,WEEK 12,85,
SYNTH-ONC-001,TR,SYNTH-ONC-001-0043,176,DIAM,Diameter,65.23,mm,2022-08-07,4,WEEK 24,169,
SYNTH-ONC-001,TR,SYNTH-ONC-001-0043,177,DIAM,Diameter,70.09,mm,2022-10-30,5,WEEK 36,253,
SYNTH-ONC-001,TR,SYNTH-ONC-001-0044,178,DIAM,Diameter,41.63,mm,2021-10-26,2,BASELINE,1,Y
SYNTH-ONC-001,TR,SYNTH-ONC-001-0044,179,DIAM,Diameter,39.65,mm,2022-01-18,3,WEEK 12,85,
SYNTH-ONC-001,TR,SYNTH-ONC-001-0044,180,DIAM,Diameter,36.14,mm,2022-04-12,4,WEEK 24,169,
SYNTH-ONC-001,TR,SYNTH-ONC-001-0044,181,DIAM,Diameter,38.83,mm,2022-07-05,5,WEEK 36,253,
SYNTH-ONC-001,TR,SYNTH-ONC-001-0044,182,DIAM,Diameter,45.94,mm,2022-09-27,6,WEEK 48,337,
SYNTH-ONC-001,TR,SYNTH-ONC-001-0044,183,DIAM,Diameter,50.88,mm,2022-12-20,7,WEEK 60,421,
SYNTH-ONC-001,TR,SYNTH-ONC-001-0044,184,DIAM,Diameter,65.58,mm,2023-03-14,8,WEEK 72,505,
SYNTH-ONC-001,TR,SYNTH-ONC-001-0044,185,DIAM,Diameter,60.48,mm,2023-06-06,9,WEEK 84,589,
SYNTH-ONC-001,TR,SYNTH-ONC-001-0044,186,DIAM,Diameter,63.4,mm,2023-08-29,10,WEEK 96,673,
SYNTH-ONC-001,TR,SYNTH-ONC-001-0044,187,DIAM,Diameter,55.13,mm,2023-11-21,11,WEEK 108,757,
SYNTH-ONC-001,TR,SYNTH-ONC-001-0045,188,DIAM,Diameter,40.78,mm,2022-09-04,2,BASELINE,1,Y
SYNTH-ONC-001,TR,SYNTH-ONC-001-0045,189,DIAM,Diameter,52.9,mm,2022-11-27,3,WEEK 12,85,
SYNTH-ONC-001,TR,SYNTH-ONC-001-0045,190,DIAM,Diameter,51.19,mm,2023-02-19,4,WEEK 24,169,
SYNTH-ONC-001,TR,SYNTH-ONC-001-0045,191,DIAM,Diameter,46.77,mm,2023-05-14,5,WEEK 36,253,
SYNTH-ONC-001,TR,SYNTH-ONC-001-0046,192,DIAM,Diameter,28.7,mm,2021-09-21,2,BASELINE,1,Y
SYNTH-ONC-001,TR,SYNTH-ONC-001-0046,193,DIAM,Diameter,24.19,mm,2021-12-14,3,WEEK 12,85,
SYNTH-ONC-001,TR,SYNTH-ONC-001-0046,194,DIAM,Diameter,24.55,mm,2022-03-08,4,WEEK 24,169,
SYNTH-ONC-001,TR,SYNTH-ONC-001-0046,195,DIAM,Diameter,15.69,mm,2022-05-31,5,WEEK 36,253,
SYNTH-ONC-001,TR,SYNTH-ONC-001-0047,196,DIAM,Diameter,47.37,mm,2021-05-25,2,BASELINE,1,Y
SYNTH-ONC-001,TR,SYNTH-ONC-001-0047,197,DIAM,Diameter,45.54,mm,2021-08-17,3,WEEK 12,85,
SYNTH-ONC-001,TR,SYNTH-ONC-001-0047,198,DIAM,Diameter,27.88,mm,2021-11-09,4,WEEK 24,169,
SYNTH-ONC-001,TR,SYNTH-ONC-001-0047,199,DIAM,Diameter,8.33,mm,2022-02-01,5,WEEK 36,253,
SYNTH-ONC-001,TR,SYNTH-ONC-001-0047,200,DIAM,Diameter,1.0,mm,2022-04-26,6,WEEK 48,337,
SYNTH-ONC-001,TR,SYNTH-ONC-001-0047,201,DIAM,Diameter,1.0,mm,2022-07-19,7,WEEK 60,421,
SYNTH-ONC-001,TR,SYNTH-ONC-001-0047,202,DIAM,Diameter,1.0,mm,2022-10-11,8,WEEK 72,505,
SYNTH-ONC-001,TR,SYNTH-ONC-001-0047,203,DIAM,Diameter,1.0,mm,2023-01-03,9,WEEK 84,589,
SYNTH-ONC-001,TR,SYNTH-ONC-001-0047,204,DIAM,Diameter,1.0,mm,2023-03-28,10,WEEK 96,673,
SYNTH-ONC-001,TR,SYNTH-ONC-001-0047,205,DIAM,Diameter,5.16,mm,2023-06-20,11,WEEK 108,757,
SYNTH-ONC-001,TR,SYNTH-ONC-001-0048,206,DIAM,Diameter,31.7,mm,2021-12-13,2,BASELINE,1,Y
SYNTH-ONC-001,TR,SYNTH-ONC-001-0048,207,DIAM,Diameter,22.74,mm,2022-03-07,3,WEEK 12,85,
SYNTH-ONC-001,TR,SYNTH-ONC-001-0049,208,DIAM,Diameter,38.81,mm,2022-09-17,2,BASELINE,1,Y
SYNTH-ONC-001,TR,SYNTH-ONC-001-0049,209,DIAM,Diameter,47.13,mm,2022-12-10,3,WEEK 12,85,
SYNTH-ONC-001,TR,SYNTH-ONC-001-0049,210,DIAM,Diameter,46.95,mm,2023-03-04,4,WEEK 24,169,
SYNTH-ONC-001,TR,SYNTH-ONC-001-0049,211,DIAM,Diameter,49.17,mm,2023-05-27,5,WEEK 36,253,
SYNTH-ONC-001,TR,SYNTH-ONC-001-0050,212,DIAM,Diameter,37.17,mm,2022-07-27,2,BASELINE,1,Y
SYNTH-ONC-001,TR,SYNTH-ONC-001-0050,213,DIAM,Diameter,35.76,mm,2022-10-19,3,WEEK 12,85,
SYNTH-ONC-001,TR,SYNTH-ONC-001-0050,214,DIAM,Diameter,38.47,mm,2023-01-11,4,WEEK 24,169,
SYNTH-ONC-001,TR,SYNTH-ONC-001-0050,215,DIAM,Diameter,51.32,mm,2023-04-05,5,WEEK 36,253,
SYNTH-ONC-001,TR,SYNTH-ONC-001-0050,216,DIAM,Diameter,46.97,mm,2023-06-28,6,WEEK 48,337,
SYNTH-ONC-001,TR,SYNTH-ONC-001-0050,217,DIAM,Diameter,44.56,mm,2023-09-20,7,WEEK 60,421,
SYNTH-ONC-001,TR,SYNTH-ONC-001-0050,218,DIAM,Diameter,54.12,mm,2023-12-13,8,WEEK 72,505,
SYNTH-ONC-001,TR,SYNTH-ONC-001-0050,219,DIAM,Diameter,49.24,mm,2024-03-06,9,WEEK 84,589,
SYNTH-ONC-001,TR,SYNTH-ONC-001-0050,220,DIAM,Diameter,60.38,mm,2024-05-29,10,WEEK 96,673,
SYNTH-ONC-001,TR,SYNTH-ONC-001-0051,221,DIAM,Diameter,49.91,mm,2021-01-03,2,BASELINE,1,Y
SYNTH-ONC-001,TR,SYNTH-ONC-001-0051,222,DIAM,Diameter,54.33,mm,2021-03-28,3,WEEK 12,85,
SYNTH-ONC-001,TR,SYNTH-ONC-001-0051,223,DIAM,Diameter,59.27,mm,2021-06-20,4,WEEK 24,169,
SYNTH-ONC-001,TR,SYNTH-ONC-001-0051,224,DIAM,Diameter,56.34,mm,2021-09-12,5,WEEK 36,253,
SYNTH-ONC-001,TR,SYNTH-ONC-001-0051,225,DIAM,Diameter,61.46,mm,2021-12-05,6,WEEK 48,337,
SYNTH-ONC-001,TR,SYNTH-ONC-001-0051,226,DIAM,Diameter,57.28,mm,2022-02-27,7,WEEK 60,421,
SYNTH-ONC-001,TR,SYNTH-ONC-001-0052,227,DIAM,Diameter,44.98,mm,2021-11-01,2,BASELINE,1,Y
SYNTH-ONC-001,TR,SYNTH-ONC-001-0052,228,DIAM,Diameter,51.45,mm,2022-01-24,3,WEEK 12,85,
SYNTH-ONC-001,TR,SYNTH-ONC-001-0052,229,DIAM,Diameter,55.8,mm,2022-04-18,4,WEEK 24,169,
SYNTH-ONC-001,TR,SYNTH-ONC-001-0052,230,DIAM,Diameter,57.2,mm,2022-07-11,5,WEEK 36,253,
SYNTH-ONC-001,TR,SYNTH-ONC-001-0052,231,DIAM,Diameter,49.13,mm,2022-10-03,6,WEEK 48,337,
SYNTH-ONC-001,TR,SYNTH-ONC-001-0053,232,DIAM,Diameter,39.91,mm,2021-09-12,2,BASELINE,1,Y
SYNTH-ONC-001,TR,SYNTH-ONC-001-0053,233,DIAM,Diameter,44.12,mm,2021-12-05,3,WEEK 12,85,
SYNTH-ONC-001,TR,SYNTH-ONC-001-0053,234,DIAM,Diameter,51.98,mm,2022-02-27,4,WEEK 24,169,
SYNTH-ONC-001,TR,SYNTH-ONC-001-0053,235,DIAM,Diameter,45.1,mm,2022-05-22,5,WEEK 36,253,
SYNTH-ONC-001,TR,SYNTH-ONC-001-0053,236,DIAM,Diameter,40.38,mm,2022-08-14,6,WEEK 48,337,
SYNTH-ONC-001,TR,SYNTH-ONC-001-0053,237,DIAM,Diameter,43.46,mm,2022-11-06,7,WEEK 60,421,
SYNTH-ONC-001,TR,SYNTH-ONC-001-0053,238,DIAM,Diameter,46.36,mm,2023-01-29,8,WEEK 72,505,
SYNTH-ONC-001,TR,SYNTH-ONC-001-0053,239,DIAM,Diameter,35.37,mm,2023-04-23,9,WEEK 84,589,
SYNTH-ONC-001,TR,SYNTH-ONC-001-0054,240,DIAM,Diameter,51.62,mm,2022-10-15,2,BASELINE,1,Y
SYNTH-ONC-001,TR,SYNTH-ONC-001-0054,241,DIAM,Diameter,48.83,mm,2023-01-07,3,WEEK 12,85,
SYNTH-ONC-001,TR,SYNTH-ONC-001-0055,242,DIAM,Diameter,66.41,mm,2022-03-30,2,BASELINE,1,Y
SYNTH-ONC-001,TR,SYNTH-ONC-001-0055,243,DIAM,Diameter,70.4,mm,2022-06-22,3,WEEK 12,85,
SYNTH-ONC-001,TR,SYNTH-ONC-001-0055,244,DIAM,Diameter,75.78,mm,2022-09-14,4,WEEK 24,169,
SYNTH-ONC-001,TR,SYNTH-ONC-001-0055,245,DIAM,Diameter,81.35,mm,2022-12-07,5,WEEK 36,253,
SYNTH-ONC-001,TR,SYNTH-ONC-001-0055,246,DIAM,Diameter,73.64,mm,2023-03-01,6,WEEK 48,337,
SYNTH-ONC-001,TR,SYNTH-ONC-001-0055,247,DIAM,Diameter,91.19,mm,2023-05-24,7,WEEK 60,421,
SYNTH-ONC-001,TR,SYNTH-ONC-001-0055,248,DIAM,Diameter,80.21,mm,2023-08-16,8,WEEK 72,505,
SYNTH-ONC-001,TR,SYNTH-ONC-001-0055,249,DIAM,Diameter,88.58,mm,2023-11-08,9,WEEK 84,589,
SYNTH-ONC-001,TR,SYNTH-ONC-001-0055,250,DIAM,Diameter,95.53,mm,2024-01-31,10,WEEK 96,673,
SYNTH-ONC-001,TR,SYNTH-ONC-001-0056,251,DIAM,Diameter,45.23,mm,2021-02-07,2,BASELINE,1,Y
SYNTH-ONC-001,TR,SYNTH-ONC-001-0056,252,DIAM,Diameter,52.56,mm,2021-05-02,3,WEEK 12,85,
SYNTH-ONC-001,TR,SYNTH-ONC-001-0056,253,DIAM,Diameter,52.02,mm,2021-07-25,4,WEEK 24,169,
SYNTH-ONC-001,TR,SYNTH-ONC-001-0056,254,DIAM,Diameter,48.62,mm,2021-10-17,5,WEEK 36,253,
SYNTH-ONC-001,TR,SYNTH-ONC-001-0057,255,DIAM,Diameter,54.7,mm,2021-06-10,2,BASELINE,1,Y
SYNTH-ONC-001,TR,SYNTH-ONC-001-0058,256,DIAM,Diameter,39.93,mm,2021-01-10,2,BASELINE,1,Y
SYNTH-ONC-001,TR,SYNTH-ONC-001-0058,257,DIAM,Diameter,40.14,mm,2021-04-04,3,WEEK 12,85,
SYNTH-ONC-001,TR,SYNTH-ONC-001-0058,258,DIAM,Diameter,37.39,mm,2021-06-27,4,WEEK 24,169,
SYNTH-ONC-001,TR,SYNTH-ONC-001-0058,259,DIAM,Diameter,36.7,mm,2021-09-19,5,WEEK 36,253,
SYNTH-ONC-001,TR,SYNTH-ONC-001-0058,260,DIAM,Diameter,42.16,mm,2021-12-12,6,WEEK 48,337,
SYNTH-ONC-001,TR,SYNTH-ONC-001-0058,261,DIAM,Diameter,39.41,mm,2022-03-06,7,WEEK 60,421,
SYNTH-ONC-001,TR,SYNTH-ONC-001-0059,262,DIAM,Diameter,48.08,mm,2021-08-22,2,BASELINE,1,Y
SYNTH-ONC-001,TR,SYNTH-ONC-001-0060,263,DIAM,Diameter,44.97,mm,2021-04-10,2,BASELINE,1,Y
SYNTH-ONC-001,TR,SYNTH-ONC-001-0061,264,DIAM,Diameter,64.44,mm,2022-10-22,2,BASELINE,1,Y
SYNTH-ONC-001,TR,SYNTH-ONC-001-0061,265,DIAM,Diameter,69.18,mm,2023-01-14,3,WEEK 12,85,
SYNTH-ONC-001,TR,SYNTH-ONC-001-0061,266,DIAM,Diameter,72.94,mm,2023-04-08,4,WEEK 24,169,
SYNTH-ONC-001,TR,SYNTH-ONC-001-0062,267,DIAM,Diameter,56.83,mm,2021-07-28,2,BASELINE,1,Y
SYNTH-ONC-001,TR,SYNTH-ONC-001-0062,268,DIAM,Diameter,54.08,mm,2021-10-20,3,WEEK 12,85,
SYNTH-ONC-001,TR,SYNTH-ONC-001-0062,269,DIAM,Diameter,62.96,mm,2022-01-12,4,WEEK 24,169,
SYNTH-ONC-001,TR,SYNTH-ONC-001-0062,270,DIAM,Diameter,67.72,mm,2022-04-06,5,WEEK 36,253,
SYNTH-ONC-001,TR,SYNTH-ONC-001-0062,271,DIAM,Diameter,57.24,mm,2022-06-29,6,WEEK 48,337,
SYNTH-ONC-001,TR,SYNTH-ONC-001-0062,272,DIAM,Diameter,47.81,mm,2022-09-21,7,WEEK 60,421,
SYNTH-ONC-001,TR,SYNTH-ONC-001-0062,273,DIAM,Diameter,45.23,mm,2022-12-14,8,WEEK 72,505,
SYNTH-ONC-001,TR,SYNTH-ONC-001-0062,274,DIAM,Diameter,36.67,mm,2023-03-08,9,WEEK 84,589,
SYNTH-ONC-001,TR,SYNTH-ONC-001-0063,275,DIAM,Diameter,47.62,mm,2021-05-12,2,BASELINE,1,Y
SYNTH-ONC-001,TR,SYNTH-ONC-001-0063,276,DIAM,Diameter,41.51,mm,2021-08-04,3,WEEK 12,85,
SYNTH-ONC-001,TR,SYNTH-ONC-001-0063,277,DIAM,Diameter,42.73,mm,2021-10-27,4,WEEK 24,169,
SYNTH-ONC-001,TR,SYNTH-ONC-001-0064,278,DIAM,Diameter,64.12,mm,2022-02-09,2,BASELINE,1,Y
SYNTH-ONC-001,TR,SYNTH-ONC-001-0065,279,DIAM,Diameter,49.51,mm,2021-06-02,2,BASELINE,1,Y
SYNTH-ONC-001,TR,SYNTH-ONC-001-0065,280,DIAM,Diameter,49.08,mm,2021-08-25,3,WEEK 12,85,
SYNTH-ONC-001,TR,SYNTH-ONC-001-0066,281,DIAM,Diameter,53.88,mm,2021-02-24,2,BASELINE,1,Y
SYNTH-ONC-001,TR,SYNTH-ONC-001-0066,282,DIAM,Diameter,50.31,mm,2021-05-19,3,WEEK 12,85,
SYNTH-ONC-001,TR,SYNTH-ONC-001-0066,283,DIAM,Diameter,59.06,mm,2021-08-11,4,WEEK 24,169,
SYNTH-ONC-001,TR,SYNTH-ONC-001-0067,284,DIAM,Diameter,54.95,mm,2021-05-01,2,BASELINE,1,Y
SYNTH-ONC-001,TR,SYNTH-ONC-001-0067,285,DIAM,Diameter,57.26,mm,2021-07-24,3,WEEK 12,85,
SYNTH-ONC-001,TR,SYNTH-ONC-001-0067,286,DIAM,Diameter,60.5,mm,2021-10-16,4,WEEK 24,169,
SYNTH-ONC-001,TR,SYNTH-ONC-001-0067,287,DIAM,Diameter,78.83,mm,2022-01-08,5,WEEK 36,253,
SYNTH-ONC-001,TR,SYNTH-ONC-001-0067,288,DIAM,Diameter,88.37,mm,2022-04-02,6,WEEK 48,337,
SYNTH-ONC-001,TR,SYNTH-ONC-001-0067,289,DIAM,Diameter,107.97,mm,2022-06-25,7,WEEK 60,421,
SYNTH-ONC-001,TR,SYNTH-ONC-001-0067,290,DIAM,Diameter,114.22,mm,2022-09-17,8,WEEK 72,505,
SYNTH-ONC-001,TR,SYNTH-ONC-001-0067,291,DIAM,Diameter,104.45,mm,2022-12-10,9,WEEK 84,589,
SYNTH-ONC-001,TR,SYNTH-ONC-001-0068,292,DIAM,Diameter,47.38,mm,2022-11-05,2,BASELINE,1,Y
SYNTH-ONC-001,TR,SYNTH-ONC-001-0068,293,DIAM,Diameter,35.78,mm,2023-01-28,3,WEEK 12,85,
SYNTH-ONC-001,TR,SYNTH-ONC-001-0069,294,DIAM,Diameter,55.28,mm,2022-09-21,2,BASELINE,1,Y
SYNTH-ONC-001,TR,SYNTH-ONC-001-0069,295,DIAM,Diameter,49.25,mm,2022-12-14,3,WEEK 12,85,
SYNTH-ONC-001,TR,SYNTH-ONC-001-0069,296,DIAM,Diameter,30.16,mm,2023-03-08,4,WEEK 24,169,
SYNTH-ONC-001,TR,SYNTH-ONC-001-0069,297,DIAM,Diameter,12.91,mm,2023-05-31,5,WEEK 36,253,
SYNTH-ONC-001,TR,SYNTH-ONC-001-0069,298,DIAM,Diameter,2.1,mm,2023-08-23,6,WEEK 48,337,
SYNTH-ONC-001,TR,SYNTH-ONC-001-0069,299,DIAM,Diameter,1.0,mm,2023-11-15,7,WEEK 60,421,
SYNTH-ONC-001,TR,SYNTH-ONC-001-0069,300,DIAM,Diameter,1.0,mm,2024-02-07,8,WEEK 72,505,
SYNTH-ONC-001,TR,SYNTH-ONC-001-0069,301,DIAM,Diameter,1.0,mm,2024-05-01,9,WEEK 84,589,
SYNTH-ONC-001,TR,SYNTH-ONC-001-0069,302,DIAM,Diameter,1.0,mm,2024-07-24,10,WEEK 96,673,
SYNTH-ONC-001,TR,SYNTH-ONC-001-0069,303,DIAM,Diameter,1.0,mm,2024-10-16,11,WEEK 108,757,
SYNTH-ONC-001,TR,SYNTH-ONC-001-0070,304,DIAM,Diameter,33.08,mm,2022-08-11,2,BASELINE,1,Y
SYNTH-ONC-001,TR,SYNTH-ONC-001-0070,305,DIAM,Diameter,27.9,mm,2022-11-03,3,WEEK 12,85,
SYNTH-ONC-001,TR,SYNTH-ONC-001-0070,306,DIAM,Diameter,10.42,mm,2023-01-26,4,WEEK 24,169,
SYNTH-ONC-001,TR,SYNTH-ONC-001-0070,307,DIAM,Diameter,13.31,mm,2023-04-20,5,WEEK 36,253,
SYNTH-ONC-001,TR,SYNTH-ONC-001-0071,308,DIAM,Diameter,58.59,mm,2022-09-18,2,BASELINE,1,Y
SYNTH-ONC-001,TR,SYNTH-ONC-001-0071,309,DIAM,Diameter,54.13,mm,2022-12-11,3,WEEK 12,85,
SYNTH-ONC-001,TR,SYNTH-ONC-001-0071,310,DIAM,Diameter,50.4,mm,2023-03-05,4,WEEK 24,169,
SYNTH-ONC-001,TR,SYNTH-ONC-001-0072,311,DIAM,Diameter,67.22,mm,2022-02-25,2,BASELINE,1,Y
SYNTH-ONC-001,TR,SYNTH-ONC-001-0072,312,DIAM,Diameter,68.54,mm,2022-05-20,3,WEEK 12,85,
SYNTH-ONC-001,TR,SYNTH-ONC-001-0072,313,DIAM,Diameter,66.44,mm,2022-08-12,4,WEEK 24,169,
SYNTH-ONC-001,TR,SYNTH-ONC-001-0073,314,DIAM,Diameter,50.28,mm,2022-02-27,2,BASELINE,1,Y
SYNTH-ONC-001,TR,SYNTH-ONC-001-0073,315,DIAM,Diameter,34.13,mm,2022-05-22,3,WEEK 12,85,
SYNTH-ONC-001,TR,SYNTH-ONC-001-0073,316,DIAM,Diameter,24.06,mm,2022-08-14,4,WEEK 24,169,
SYNTH-ONC-001,TR,SYNTH-ONC-001-0073,317,DIAM,Diameter,11.46,mm,2022-11-06,5,WEEK 36,253,
SYNTH-ONC-001,TR,SYNTH-ONC-001-0073,318,DIAM,Diameter,6.46,mm,2023-01-29,6,WEEK 48,337,
SYNTH-ONC-001,TR,SYNTH-ONC-001-0073,319,DIAM,Diameter,1.0,mm,2023-04-23,7,WEEK 60,421,
SYNTH-ONC-001,TR,SYNTH-ONC-001-0073,320,DIAM,Diameter,1.0,mm,2023-07-16,8,WEEK 72,505,
SYNTH-ONC-001,TR,SYNTH-ONC-001-0073,321,DIAM,Diameter,1.0,mm,2023-10-08,9,WEEK 84,589,
SYNTH-ONC-001,TR,SYNTH-ONC-001-0074,322,DIAM,Diameter,46.45,mm,2021-04-15,2,BASELINE,1,Y
SYNTH-ONC-001,TR,SYNTH-ONC-001-0074,323,DIAM,Diameter,47.83,mm,2021-07-08,3,WEEK 12,85,
SYNTH-ONC-001,TR,SYNTH-ONC-001-0075,324,DIAM,Diameter,56.35,mm,2021-09-12,2,BASELINE,1,Y
SYNTH-ONC-001,TR,SYNTH-ONC-001-0075,325,DIAM,Diameter,62.98,mm,2021-12-05,3,WEEK 12,85,
SYNTH-ONC-001,TR,SYNTH-ONC-001-0075,326,DIAM,Diameter,74.58,mm,2022-02-27,4,WEEK 24,169,
SYNTH-ONC-001,TR,SYNTH-ONC-001-0075,327,DIAM,Diameter,70.09,mm,2022-05-22,5,WEEK 36,253,
SYNTH-ONC-001,TR,SYNTH-ONC-001-0075,328,DIAM,Diameter,75.2,mm,2022-08-14,6,WEEK 48,337,
SYNTH-ONC-001,TR,SYNTH-ONC-001-0076,329,DIAM,Diameter,57.27,mm,2021-08-16,2,BASELINE,1,Y
SYNTH-ONC-001,TR,SYNTH-ONC-001-0076,330,DIAM,Diameter,39.88,mm,2021-11-08,3,WEEK 12,85,
SYNTH-ONC-001,TR,SYNTH-ONC-001-0076,331,DIAM,Diameter,26.22,mm,2022-01-31,4,WEEK 24,169,
SYNTH-ONC-001,TR,SYNTH-ONC-001-0076,332,DIAM,Diameter,1.0,mm,2022-04-25,5,WEEK 36,253,
SYNTH-ONC-001,TR,SYNTH-ONC-001-0076,333,DIAM,Diameter,1.0,mm,2022-07-18,6,WEEK 48,337,
SYNTH-ONC-001,TR,SYNTH-ONC-001-0076,334,DIAM,Diameter,1.0,mm,2022-10-10,7,WEEK 60,421,
SYNTH-ONC-001,TR,SYNTH-ONC-001-0076,335,DIAM,Diameter,1.0,mm,2023-01-02,8,WEEK 72,505,
SYNTH-ONC-001,TR,SYNTH-ONC-001-0076,336,DIAM,Diameter,1.0,mm,2023-03-27,9,WEEK 84,589,
SYNTH-ONC-001,TR,SYNTH-ONC-001-0076,337,DIAM,Diameter,1.0,mm,2023-06-19,10,WEEK 96,673,
SYNTH-ONC-001,TR,SYNTH-ONC-001-0076,338,DIAM,Diameter,1.0,mm,2023-09-11,11,WEEK 108,757,
SYNTH-ONC-001,TR,SYNTH-ONC-001-0077,339,DIAM,Diameter,35.85,mm,2021-04-23,2,BASELINE,1,Y
SYNTH-ONC-001,TR,SYNTH-ONC-001-0077,340,DIAM,Diameter,17.11,mm,2021-07-16,3,WEEK 12,85,
SYNTH-ONC-001,TR,SYNTH-ONC-001-0077,341,DIAM,Diameter,14.6,mm,2021-10-08,4,WEEK 24,169,
SYNTH-ONC-001,TR,SYNTH-ONC-001-0078,342,DIAM,Diameter,72.78,mm,2022-05-26,2,BASELINE,1,Y
SYNTH-ONC-001,TR,SYNTH-ONC-001-0078,343,DIAM,Diameter,64.48,mm,2022-08-18,3,WEEK 12,85,
SYNTH-ONC-001,TR,SYNTH-ONC-001-0079,344,DIAM,Diameter,23.69,mm,2022-04-19,2,BASELINE,1,Y
SYNTH-ONC-001,TR,SYNTH-ONC-001-0079,345,DIAM,Diameter,19.39,mm,2022-07-12,3,WEEK 12,85,
SYNTH-ONC-001,TR,SYNTH-ONC-001-0080,346,DIAM,Diameter,73.64,mm,2021-04-10,2,BASELINE,1,Y
SYNTH-ONC-001,TR,SYNTH-ONC-001-0081,347,DIAM,Diameter,52.98,mm,2021-06-03,2,BASELINE,1,Y
SYNTH-ONC-001,TR,SYNTH-ONC-001-0082,348,DIAM,Diameter,52.89,mm,2021-12-05,2,BASELINE,1,Y
SYNTH-ONC-001,TR,SYNTH-ONC-001-0082,349,DIAM,Diameter,52.41,mm,2022-02-27,3,WEEK 12,85,
SYNTH-ONC-001,TR,SYNTH-ONC-001-0082,350,DIAM,Diameter,40.05,mm,2022-05-22,4,WEEK 24,169,
SYNTH-ONC-001,TR,SYNTH-ONC-001-0082,351,DIAM,Diameter,30.45,mm,2022-08-14,5,WEEK 36,253,
SYNTH-ONC-001,TR,SYNTH-ONC-001-0082,352,DIAM,Diameter,29.91,mm,2022-11-06,6,WEEK 48,337,
SYNTH-ONC-001,TR,SYNTH-ONC-001-0082,353,DIAM,Diameter,27.85,mm,2023-01-29,7,WEEK 60,421,
SYNTH-ONC-001,TR,SYNTH-ONC-001-0082,354,DIAM,Diameter,28.93,mm,2023-04-23,8,WEEK 72,505,
SYNTH-ONC-001,TR,SYNTH-ONC-001-0082,355,DIAM,Diameter,37.56,mm,2023-07-16,9,WEEK 84,589,
SYNTH-ONC-001,TR,SYNTH-ONC-001-0082,356,DIAM,Diameter,34.91,mm,2023-10-08,10,WEEK 96,673,
SYNTH-ONC-001,TR,SYNTH-ONC-001-0082,357,DIAM,Diameter,43.7,mm,2023-12-31,11,WEEK 108,757,
SYNTH-ONC-001,TR,SYNTH-ONC-001-0083,358,DIAM,Diameter,44.25,mm,2022-12-08,2,BASELINE,1,Y
SYNTH-ONC-001,TR,SYNTH-ONC-001-0083,359,DIAM,Diameter,40.55,mm,2023-03-02,3,WEEK 12,85,
SYNTH-ONC-001,TR,SYNTH-ONC-001-0083,360,DIAM,Diameter,29.24,mm,2023-05-25,4,WEEK 24,169,
SYNTH-ONC-001,TR,SYNTH-ONC-001-0083,361,DIAM,Diameter,13.76,mm,2023-08-17,5,WEEK 36,253,
SYNTH-ONC-001,TR,SYNTH-ONC-001-0084,362,DIAM,Diameter,50.69,mm,2021-06-13,2,BASELINE,1,Y
SYNTH-ONC-001,TR,SYNTH-ONC-001-0084,363,DIAM,Diameter,50.34,mm,2021-09-05,3,WEEK 12,85,
SYNTH-ONC-001,TR,SYNTH-ONC-001-0084,364,DIAM,Diameter,53.25,mm,2021-11-28,4,WEEK 24,169,
SYNTH-ONC-001,TR,SYNTH-ONC-001-0084,365,DIAM,Diameter,61.31,mm,2022-02-20,5,WEEK 36,253,
SYNTH-ONC-001,TR,SYNTH-ONC-001-0084,366,DIAM,Diameter,62.62,mm,2022-05-15,6,WEEK 48,337,
SYNTH-ONC-001,TR,SYNTH-ONC-001-0084,367,DIAM,Diameter,61.66,mm,2022-08-07,7,WEEK 60,421,
SYNTH-ONC-001,TR,SYNTH-ONC-001-0084,368,DIAM,Diameter,54.67,mm,2022-10-30,8,WEEK 72,505,
SYNTH-ONC-001,TR,SYNTH-ONC-001-0084,369,DIAM,Diameter,61.31,mm,2023-01-22,9,WEEK 84,589,
SYNTH-ONC-001,TR,SYNTH-ONC-001-0084,370,DIAM,Diameter,66.09,mm,2023-04-16,10,WEEK 96,673,
SYNTH-ONC-001,TR,SYNTH-ONC-001-0084,371,DIAM,Diameter,58.64,mm,2023-07-09,11,WEEK 108,757,
SYNTH-ONC-001,TR,SYNTH-ONC-001-0085,372,DIAM,Diameter,58.35,mm,2022-12-22,2,BASELINE,1,Y
SYNTH-ONC-001,TR,SYNTH-ONC-001-0085,373,DIAM,Diameter,50.77,mm,2023-03-16,3,WEEK 12,85,
SYNTH-ONC-001,TR,SYNTH-ONC-001-0085,374,DIAM,Diameter,61.0,mm,2023-06-08,4,WEEK 24,169,
SYNTH-ONC-001,TR,SYNTH-ONC-001-0085,375,DIAM,Diameter,68.51,mm,2023-08-31,5,WEEK 36,253,
SYNTH-ONC-001,TR,SYNTH-ONC-001-0086,376,DIAM,Diameter,54.2,mm,2022-11-13,2,BASELINE,1,Y
SYNTH-ONC-001,TR,SYNTH-ONC-001-0086,377,DIAM,Diameter,53.18,mm,2023-02-05,3,WEEK 12,85,
SYNTH-ONC-001,TR,SYNTH-ONC-001-0086,378,DIAM,Diameter,59.79,mm,2023-04-30,4,WEEK 24,169,
SYNTH-ONC-001,TR,SYNTH-ONC-001-0086,379,DIAM,Diameter,70.4,mm,2023-07-23,5,WEEK 36,253,
SYNTH-ONC-001,TR,SYNTH-ONC-001-0086,380,DIAM,Diameter,77.14,mm,2023-10-15,6,WEEK 48,337,
SYNTH-ONC-001,TR,SYNTH-ONC-001-0086,381,DIAM,Diameter,73.77,mm,2024-01-07,7,WEEK 60,421,
SYNTH-ONC-001,TR,SYNTH-ONC-001-0086,382,DIAM,Diameter,77.91,mm,2024-03-31,8,WEEK 72,505,
SYNTH-ONC-001,TR,SYNTH-ONC-001-0086,383,DIAM,Diameter,88.97,mm,2024-06-23,9,WEEK 84,589,
SYNTH-ONC-001,TR,SYNTH-ONC-001-0086,384,DIAM,Diameter,108.56,mm,2024-09-15,10,WEEK 96,673,
SYNTH-ONC-001,TR,SYNTH-ONC-001-0086,385,DIAM,Diameter,108.92,mm,2024-12-08,11,WEEK 108,757,
SYNTH-ONC-001,TR,SYNTH-ONC-001-0087,386,DIAM,Diameter,58.58,mm,2021-06-11,2,BASELINE,1,Y
SYNTH-ONC-001,TR,SYNTH-ONC-001-0087,387,DIAM,Diameter,55.65,mm,2021-09-03,3,WEEK 12,85,
SYNTH-ONC-001,TR,SYNTH-ONC-001-0087,388,DIAM,Diameter,37.16,mm,2021-11-26,4,WEEK 24,169,
SYNTH-ONC-001,TR,SYNTH-ONC-001-0088,389,DIAM,Diameter,67.82,mm,2022-08-04,2,BASELINE,1,Y
SYNTH-ONC-001,TR,SYNTH-ONC-001-0089,390,DIAM,Diameter,39.35,mm,2022-02-03,2,BASELINE,1,Y
SYNTH-ONC-001,TR,SYNTH-ONC-001-0089,391,DIAM,Diameter,47.82,mm,2022-04-28,3,WEEK 12,85,
SYNTH-ONC-001,TR,SYNTH-ONC-001-0089,392,DIAM,Diameter,52.26,mm,2022-07-21,4,WEEK 24,169,
SYNTH-ONC-001,TR,SYNTH-ONC-001-0089,393,DIAM,Diameter,54.71,mm,2022-10-13,5,WEEK 36,253,
SYNTH-ONC-001,TR,SYNTH-ONC-001-0089,394,DIAM,Diameter,77.08,mm,2023-01-05,6,WEEK 48,337,
SYNTH-ONC-001,TR,SYNTH-ONC-001-0089,395,DIAM,Diameter,76.67,mm,2023-03-30,7,WEEK 60,421,
SYNTH-ONC-001,TR,SYNTH-ONC-001-0089,396,DIAM,Diameter,76.13,mm,2023-06-22,8,WEEK 72,505,
SYNTH-ONC-001,TR,SYNTH-ONC-001-0089,397,DIAM,Diameter,88.78,mm,2023-09-14,9,WEEK 84,589,
SYNTH-ONC-001,TR,SYNTH-ONC-001-0089,398,DIAM,Diameter,96.88,mm,2023-12-07,10,WEEK 96,673,
SYNTH-ONC-001,TR,SYNTH-ONC-001-0089,399,DIAM,Diameter,109.14,mm,2024-02-29,11,WEEK 108,757,
SYNTH-ONC-001,TR,SYNTH-ONC-001-0090,400,DIAM,Diameter,51.17,mm,2021-10-05,2,BASELINE,1,Y
SYNTH-ONC-001,TR,SYNTH-ONC-001-0090,401,DIAM,Diameter,41.7,mm,2021-12-28,3,WEEK 12,85,
SYNTH-ONC-001,TR,SYNTH-ONC-001-0091,402,DIAM,Diameter,69.01,mm,2022-05-20,2,BASELINE,1,Y
SYNTH-ONC-001,TR,SYNTH-ONC-001-0092,403,DIAM,Diameter,41.64,mm,2022-01-28,2,BASELINE,1,Y
SYNTH-ONC-001,TR,SYNTH-ONC-001-0092,404,DIAM,Diameter,42.82,mm,2022-04-22,3,WEEK 12,85,
SYNTH-ONC-001,TR,SYNTH-ONC-001-0092,405,DIAM,Diameter,51.2,mm,2022-07-15,4,WEEK 24,169,
SYNTH-ONC-001,TR,SYNTH-ONC-001-0092,406,DIAM,Diameter,51.64,mm,2022-10-07,5,WEEK 36,253,
SYNTH-ONC-001,TR,SYNTH-ONC-001-0093,407,DIAM,Diameter,44.3,mm,2021-05-16,2,BASELINE,1,Y
SYNTH-ONC-001,TR,SYNTH-ONC-001-0093,408,DIAM,Diameter,51.25,mm,2021-08-08,3,WEEK 12,85,
SYNTH-ONC-001,TR,SYNTH-ONC-001-0094,409,DIAM,Diameter,63.36,mm,2021-07-15,2,BASELINE,1,Y
SYNTH-ONC-001,TR,SYNTH-ONC-001-0094,410,DIAM,Diameter,64.23,mm,2021-10-07,3,WEEK 12,85,
SYNTH-ONC-001,TR,SYNTH-ONC-001-0094,411,DIAM,Diameter,64.88,mm,2021-12-30,4,WEEK 24,169,
SYNTH-ONC-001,TR,SYNTH-ONC-001-0094,412,DIAM,Diameter,61.7,mm,2022-03-24,5,WEEK 36,253,
SYNTH-ONC-001,TR,SYNTH-ONC-001-0094,413,DIAM,Diameter,61.33,mm,2022-06-16,6,WEEK 48,337,
SYNTH-ONC-001,TR,SYNTH-ONC-001-0095,414,DIAM,Diameter,60.84,mm,2022-02-06,2,BASELINE,1,Y
SYNTH-ONC-001,TR,SYNTH-ONC-001-0095,415,DIAM,Diameter,63.48,mm,2022-05-01,3,WEEK 12,85,
SYNTH-ONC-001,TR,SYNTH-ONC-001-0095,416,DIAM,Diameter,59.04,mm,2022-07-24,4,WEEK 24,169,
SYNTH-ONC-001,TR,SYNTH-ONC-001-0096,417,DIAM,Diameter,52.62,mm,2022-10-03,2,BASELINE,1,Y
SYNTH-ONC-001,TR,SYNTH-ONC-001-0096,418,DIAM,Diameter,63.03,mm,2022-12-26,3,WEEK 12,85,
SYNTH-ONC-001,TR,SYNTH-ONC-001-0097,419,DIAM,Diameter,44.38,mm,2021-02-03,2,BASELINE,1,Y
SYNTH-ONC-001,TR,SYNTH-ONC-001-0097,420,DIAM,Diameter,35.75,mm,2021-04-28,3,WEEK 12,85,
SYNTH-ONC-001,TR,SYNTH-ONC-001-0097,421,DIAM,Diameter,55.28,mm,2021-07-21,4,WEEK 24,169,
SYNTH-ONC-001,TR,SYNTH-ONC-001-0097,422,DIAM,Diameter,46.25,mm,2021-10-13,5,WEEK 36,253,
SYNTH-ONC-001,TR,SYNTH-ONC-001-0098,423,DIAM,Diameter,46.41,mm,2022-11-20,2,BASELINE,1,Y
SYNTH-ONC-001,TR,SYNTH-ONC-001-0098,424,DIAM,Diameter,50.27,mm,2023-02-12,3,WEEK 12,85,
SYNTH-ONC-001,TR,SYNTH-ONC-001-0098,425,DIAM,Diameter,50.09,mm,2023-05-07,4,WEEK 24,169,
SYNTH-ONC-001,TR,SYNTH-ONC-001-0098,426,DIAM,Diameter,51.49,mm,2023-07-30,5,WEEK 36,253,
SYNTH-ONC-001,TR,SYNTH-ONC-001-0098,427,DIAM,Diameter,58.1,mm,2023-10-22,6,WEEK 48,337,
SYNTH-ONC-001,TR,SYNTH-ONC-001-0098,428,DIAM,Diameter,40.97,mm,2024-01-14,7,WEEK 60,421,
SYNTH-ONC-001,TR,SYNTH-ONC-001-0099,429,DIAM,Diameter,37.33,mm,2022-04-06,2,BASELINE,1,Y
SYNTH-ONC-001,TR,SYNTH-ONC-001-0099,430,DIAM,Diameter,39.69,mm,2022-06-29,3,WEEK 12,85,
SYNTH-ONC-001,TR,SYNTH-ONC-001-0099,431,DIAM,Diameter,38.45,mm,2022-09-21,4,WEEK 24,169,
SYNTH-ONC-001,TR,SYNTH-ONC-001-0099,432,DIAM,Diameter,41.49,mm,2022-12-14,5,WEEK 36,253,
SYNTH-ONC-001,TR,SYNTH-ONC-001-0099,433,DIAM,Diameter,45.31,mm,2023-03-08,6,WEEK 48,337,
SYNTH-ONC-001,TR,SYNTH-ONC-001-0099,434,DIAM,Diameter,30.38,mm,2023-05-31,7,WEEK 60,421,
SYNTH-ONC-001,TR,SYNTH-ONC-001-0099,435,DIAM,Diameter,42.57,mm,2023-08-23,8,WEEK 72,505,
SYNTH-ONC-001,TR,SYNTH-ONC-001-0099,436,DIAM,Diameter,40.58,mm,2023-11-15,9,WEEK 84,589,
SYNTH-ONC-001,TR,SYNTH-ONC-001-0099,437,DIAM,Diameter,35.66,mm,2024-02-07,10,WEEK 96,673,
SYNTH-ONC-001,TR,SYNTH-ONC-001-0100,438,DIAM,Diameter,52.08,mm,2022-04-16,2,BASELINE,1,Y
SYNTH-ONC-001,TR,SYNTH-ONC-001-0100,439,DIAM,Diameter,40.94,mm,2022-07-09,3,WEEK 12,85,
SYNTH-ONC-001,TR,SYNTH-ONC-001-0100,440,DIAM,Diameter,38.51,mm,2022-10-01,4,WEEK 24,169,
SYNTH-ONC-001,TR,SYNTH-ONC-001-0100,441,DIAM,Diameter,28.69,mm,2022-12-24,5,WEEK 36,253,
SYNTH-ONC-001,TR,SYNTH-ONC-001-0100,442,DIAM,Diameter,25.95,mm,2023-03-18,6,WEEK 48,337,
SYNTH-ONC-001,TR,SYNTH-ONC-001-0100,443,DIAM,Diameter,6.45,mm,2023-06-10,7,WEEK 60,421,
SYNTH-ONC-001,TR,SYNTH-ONC-001-0100,444,DIAM,Diameter,1.0,mm,2023-09-02,8,WEEK 72,505,
SYNTH-ONC-001,TR,SYNTH-ONC-001-0100,445,DIAM,Diameter,1.0,mm,2023-11-25,9,WEEK 84,589,
SYNTH-ONC-001,TR,SYNTH-ONC-001-0100,446,DIAM,Diameter,1.0,mm,2024-02-17,10,WEEK 96,673,
SYNTH-ONC-001,TR,SYNTH-ONC-001-0100,447,DIAM,Diameter,1.0,mm,2024-05-11,11,WEEK 108,757,
SYNTH-ONC-001,TR,SYNTH-ONC-001-0101,448,DIAM,Diameter,48.43,mm,2022-01-11,2,BASELINE,1,Y
SYNTH-ONC-001,TR,SYNTH-ONC-001-0101,449,DIAM,Diameter,49.24,mm,2022-04-05,3,WEEK 12,85,
SYNTH-ONC-001,TR,SYNTH-ONC-001-0101,450,DIAM,Diameter,57.13,mm,2022-06-28,4,WEEK 24,169,
SYNTH-ONC-001,TR,SYNTH-ONC-001-0102,451,DIAM,Diameter,33.93,mm,2021-01-23,2,BASELINE,1,Y
SYNTH-ONC-001,TR,SYNTH-ONC-001-0103,452,DIAM,Diameter,41.0,mm,2022-11-02,2,BASELINE,1,Y
SYNTH-ONC-001,TR,SYNTH-ONC-001-0104,453,DIAM,Diameter,49.59,mm,2021-02-08,2,BASELINE,1,Y
SYNTH-ONC-001,TR,SYNTH-ONC-001-0105,454,DIAM,Diameter,38.21,mm,2021-08-19,2,BASELINE,1,Y
SYNTH-ONC-001,TR,SYNTH-ONC-001-0106,455,DIAM,Diameter,50.46,mm,2022-01-01,2,BASELINE,1,Y
SYNTH-ONC-001,TR,SYNTH-ONC-001-0107,456,DIAM,Diameter,49.49,mm,2022-07-18,2,BASELINE,1,Y
SYNTH-ONC-001,TR,SYNTH-ONC-001-0107,457,DIAM,Diameter,40.26,mm,2022-10-10,3,WEEK 12,85,
SYNTH-ONC-001,TR,SYNTH-ONC-001-0107,458,DIAM,Diameter,30.64,mm,2023-01-02,4,WEEK 24,169,
SYNTH-ONC-001,TR,SYNTH-ONC-001-0107,459,DIAM,Diameter,11.65,mm,2023-03-27,5,WEEK 36,253,
SYNTH-ONC-001,TR,SYNTH-ONC-001-0107,460,DIAM,Diameter,3.88,mm,2023-06-19,6,WEEK 48,337,
SYNTH-ONC-001,TR,SYNTH-ONC-001-0107,461,DIAM,Diameter,6.0,mm,2023-09-11,7,WEEK 60,421,
SYNTH-ONC-001,TR,SYNTH-ONC-001-0107,462,DIAM,Diameter,9.24,mm,2023-12-04,8,WEEK 72,505,
SYNTH-ONC-001,TR,SYNTH-ONC-001-0107,463,DIAM,Diameter,12.86,mm,2024-02-26,9,WEEK 84,589,
SYNTH-ONC-001,TR,SYNTH-ONC-001-0108,464,DIAM,Diameter,42.22,mm,2022-03-15,2,BASELINE,1,Y
SYNTH-ONC-001,TR,SYNTH-ONC-001-0108,465,DIAM,Diameter,44.07,mm,2022-06-07,3,WEEK 12,85,
SYNTH-ONC-001,TR,SYNTH-ONC-001-0109,466,DIAM,Diameter,53.97,mm,2021-10-11,2,BASELINE,1,Y
SYNTH-ONC-001,TR,SYNTH-ONC-001-0110,467,DIAM,Diameter,37.32,mm,2021-01-28,2,BASELINE,1,Y
SYNTH-ONC-001,TR,SYNTH-ONC-001-0110,468,DIAM,Diameter,40.31,mm,2021-04-22,3,WEEK 12,85,
SYNTH-ONC-001,TR,SYNTH-ONC-001-0110,469,DIAM,Diameter,47.56,mm,2021-07-15,4,WEEK 24,169,
SYNTH-ONC-001,TR,SYNTH-ONC-001-0110,470,DIAM,Diameter,45.63,mm,2021-10-07,5,WEEK 36,253,
SYNTH-ONC-001,TR,SYNTH-ONC-001-0110,471,DIAM,Diameter,56.13,mm,2021-12-30,6,WEEK 48,337,
SYNTH-ONC-001,TR,SYNTH-ONC-001-0110,472,DIAM,Diameter,54.39,mm,2022-03-24,7,WEEK 60,421,
SYNTH-ONC-001,TR,SYNTH-ONC-001-0110,473,DIAM,Diameter,49.51,mm,2022-06-16,8,WEEK 72,505,
SYNTH-ONC-001,TR,SYNTH-ONC-001-0110,474,DIAM,Diameter,55.96,mm,2022-09-08,9,WEEK 84,589,
SYNTH-ONC-001,TR,SYNTH-ONC-001-0111,475,DIAM,Diameter,70.33,mm,2021-08-15,2,BASELINE,1,Y
SYNTH-ONC-001,TR,SYNTH-ONC-001-0111,476,DIAM,Diameter,73.02,mm,2021-11-07,3,WEEK 12,85,
SYNTH-ONC-001,TR,SYNTH-ONC-001-0111,477,DIAM,Diameter,80.1,mm,2022-01-30,4,WEEK 24,169,
SYNTH-ONC-001,TR,SYNTH-ONC-001-0112,478,DIAM,Diameter,44.91,mm,2021-10-05,2,BASELINE,1,Y
SYNTH-ONC-001,TR,SYNTH-ONC-001-0112,479,DIAM,Diameter,36.98,mm,2021-12-28,3,WEEK 12,85,
SYNTH-ONC-001,TR,SYNTH-ONC-001-0112,480,DIAM,Diameter,40.31,mm,2022-03-22,4,WEEK 24,169,
SYNTH-ONC-001,TR,SYNTH-ONC-001-0112,481,DIAM,Diameter,44.91,mm,2022-06-14,5,WEEK 36,253,
SYNTH-ONC-001,TR,SYNTH-ONC-001-0112,482,DIAM,Diameter,44.04,mm,2022-09-06,6,WEEK 48,337,
SYNTH-ONC-001,TR,SYNTH-ONC-001-0112,483,DIAM,Diameter,51.09,mm,2022-11-29,7,WEEK 60,421,
SYNTH-ONC-001,TR,SYNTH-ONC-001-0112,484,DIAM,Diameter,47.86,mm,2023-02-21,8,WEEK 72,505,
SYNTH-ONC-001,TR,SYNTH-ONC-001-0112,485,DIAM,Diameter,42.64,mm,2023-05-16,9,WEEK 84,589,
SYNTH-ONC-001,TR,SYNTH-ONC-001-0112,486,DIAM,Diameter,53.13,mm,2023-08-08,10,WEEK 96,673,
SYNTH-ONC-001,TR,SYNTH-ONC-001-0112,487,DIAM,Diameter,63.65,mm,2023-10-31,11,WEEK 108,757,
SYNTH-ONC-001,TR,SYNTH-ONC-001-0113,488,DIAM,Diameter,43.66,mm,2022-09-02,2,BASELINE,1,Y
SYNTH-ONC-001,TR,SYNTH-ONC-001-0113,489,DIAM,Diameter,59.41,mm,2022-11-25,3,WEEK 12,85,
SYNTH-ONC-001,TR,SYNTH-ONC-001-0113,490,DIAM,Diameter,59.11,mm,2023-02-17,4,WEEK 24,169,
SYNTH-ONC-001,TR,SYNTH-ONC-001-0113,491,DIAM,Diameter,61.79,mm,2023-05-12,5,WEEK 36,253,
SYNTH-ONC-001,TR,SYNTH-ONC-001-0113,492,DIAM,Diameter,63.11,mm,2023-08-04,6,WEEK 48,337,
SYNTH-ONC-001,TR,SYNTH-ONC-001-0113,493,DIAM,Diameter,69.3,mm,2023-10-27,7,WEEK 60,421,
SYNTH-ONC-001,TR,SYNTH-ONC-001-0113,494,DIAM,Diameter,73.47,mm,2024-01-19,8,WEEK 72,505,
SYNTH-ONC-001,TR,SYNTH-ONC-001-0113,495,DIAM,Diameter,77.54,mm,2024-04-12,9,WEEK 84,589,
SYNTH-ONC-001,TR,SYNTH-ONC-001-0113,496,DIAM,Diameter,71.38,mm,2024-07-05,10,WEEK 96,673,
SYNTH-ONC-001,TR,SYNTH-ONC-001-0113,497,DIAM,Diameter,59.87,mm,2024-09-27,11,WEEK 108,757,
SYNTH-ONC-001,TR,SYNTH-ONC-001-0114,498,DIAM,Diameter,61.42,mm,2021-10-12,2,BASELINE,1,Y
SYNTH-ONC-001,TR,SYNTH-ONC-001-0115,499,DIAM,Diameter,44.55,mm,2022-04-27,2,BASELINE,1,Y
SYNTH-ONC-001,TR,SYNTH-ONC-001-0115,500,DIAM,Diameter,46.15,mm,2022-07-20,3,WEEK 12,85,
SYNTH-ONC-001,TR,SYNTH-ONC-001-0116,501,DIAM,Diameter,53.27,mm,2022-03-30,2,BASELINE,1,Y
SYNTH-ONC-001,TR,SYNTH-ONC-001-0117,502,DIAM,Diameter,66.29,mm,2022-10-22,2,BASELINE,1,Y
SYNTH-ONC-001,TR,SYNTH-ONC-001-0117,503,DIAM,Diameter,69.58,mm,2023-01-14,3,WEEK 12,85,
SYNTH-ONC-001,TR,SYNTH-ONC-001-0117,504,DIAM,Diameter,68.42,mm,2023-04-08,4,WEEK 24,169,
SYNTH-ONC-001,TR,SYNTH-ONC-001-0117,505,DIAM,Diameter,66.23,mm,2023-07-01,5,WEEK 36,253,
SYNTH-ONC-001,TR,SYNTH-ONC-001-0117,506,DIAM,Diameter,67.94,mm,2023-09-23,6,WEEK 48,337,
SYNTH-ONC-001,TR,SYNTH-ONC-001-0117,507,DIAM,Diameter,62.66,mm,2023-12-16,7,WEEK 60,421,
SYNTH-ONC-001,TR,SYNTH-ONC-001-0117,508,DIAM,Diameter,64.89,mm,2024-03-09,8,WEEK 72,505,
SYNTH-ONC-001,TR,SYNTH-ONC-001-0117,509,DIAM,Diameter,66.48,mm,2024-06-01,9,WEEK 84,589,
SYNTH-ONC-001,TR,SYNTH-ONC-001-0117,510,DIAM,Diameter,81.61,mm,2024-08-24,10,WEEK 96,673,
SYNTH-ONC-001,TR,SYNTH-ONC-001-0117,511,DIAM,Diameter,82.94,mm,2024-11-16,11,WEEK 108,757,
SYNTH-ONC-001,TR,SYNTH-ONC-001-0118,512,DIAM,Diameter,30.76,mm,2022-06-01,2,BASELINE,1,Y
SYNTH-ONC-001,TR,SYNTH-ONC-001-0118,513,DIAM,Diameter,54.14,mm,2022-08-24,3,WEEK 12,85,
SYNTH-ONC-001,TR,SYNTH-ONC-001-0118,514,DIAM,Diameter,63.8,mm,2022-11-16,4,WEEK 24,169,
SYNTH-ONC-001,TR,SYNTH-ONC-001-0118,515,DIAM,Diameter,82.46,mm,2023-02-08,5,WEEK 36,253,
SYNTH-ONC-001,TR,SYNTH-ONC-001-0118,516,DIAM,Diameter,75.2,mm,2023-05-03,6,WEEK 48,337,
SYNTH-ONC-001,TR,SYNTH-ONC-001-0119,517,DIAM,Diameter,47.78,mm,2022-07-02,2,BASELINE,1,Y
SYNTH-ONC-001,TR,SYNTH-ONC-001-0119,518,DIAM,Diameter,55.18,mm,2022-09-24,3,WEEK 12,85,
SYNTH-ONC-001,TR,SYNTH-ONC-001-0119,519,DIAM,Diameter,61.47,mm,2022-12-17,4,WEEK 24,169,
SYNTH-ONC-001,TR,SYNTH-ONC-001-0120,520,DIAM,Diameter,53.07,mm,2021-07-12,2,BASELINE,1,Y
SYNTH-ONC-001,TR,SYNTH-ONC-001-0120,521,DIAM,Diameter,37.47,mm,2021-10-04,3,WEEK 12,85,
SYNTH-ONC-001,TR,SYNTH-ONC-001-0120,522,DIAM,Diameter,25.77,mm,2021-12-27,4,WEEK 24,169,
SYNTH-ONC-001,TR,SYNTH-ONC-001-0120,523,DIAM,Diameter,39.91,mm,2022-03-21,5,WEEK 36,253,
SYNTH-ONC-001,TR,SYNTH-ONC-001-0121,524,DIAM,Diameter,66.95,mm,2021-02-19,2,BASELINE,1,Y
SYNTH-ONC-001,TR,SYNTH-ONC-001-0121,525,DIAM,Diameter,68.1,mm,2021-05-14,3,WEEK 12,85,
SYNTH-ONC-001,TR,SYNTH-ONC-001-0121,526,DIAM,Diameter,81.22,mm,2021-08-06,4,WEEK 24,169,
SYNTH-ONC-001,TR,SYNTH-ONC-001-0121,527,DIAM,Diameter,75.04,mm,2021-10-29,5,WEEK 36,253,
SYNTH-ONC-001,TR,SYNTH-ONC-001-0121,528,DIAM,Diameter,70.68,mm,2022-01-21,6,WEEK 48,337,
SYNTH-ONC-001,TR,SYNTH-ONC-001-0121,529,DIAM,Diameter,63.86,mm,2022-04-15,7,WEEK 60,421,
SYNTH-ONC-001,TR,SYNTH-ONC-001-0121,530,DIAM,Diameter,59.06,mm,2022-07-08,8,WEEK 72,505,
SYNTH-ONC-001,TR,SYNTH-ONC-001-0121,531,DIAM,Diameter,66.85,mm,2022-09-30,9,WEEK 84,589,
SYNTH-ONC-001,TR,SYNTH-ONC-001-0121,532,DIAM,Diameter,61.95,mm,2022-12-23,10,WEEK 96,673,
SYNTH-ONC-001,TR,SYNTH-ONC-001-0121,533,DIAM,Diameter,81.87,mm,2023-03-17,11,WEEK 108,757,
SYNTH-ONC-001,TR,SYNTH-ONC-001-0122,534,DIAM,Diameter,54.6,mm,2022-05-28,2,BASELINE,1,Y
SYNTH-ONC-001,TR,SYNTH-ONC-001-0122,535,DIAM,Diameter,65.28,mm,2022-08-20,3,WEEK 12,85,
SYNTH-ONC-001,TR,SYNTH-ONC-001-0122,536,DIAM,Diameter,71.2,mm,2022-11-12,4,WEEK 24,169,
SYNTH-ONC-001,TR,SYNTH-ONC-001-0123,537,DIAM,Diameter,62.14,mm,2021-01-18,2,BASELINE,1,Y
SYNTH-ONC-001,TR,SYNTH-ONC-001-0123,538,DIAM,Diameter,57.2,mm,2021-04-12,3,WEEK 12,85,
SYNTH-ONC-001,TR,SYNTH-ONC-001-0123,539,DIAM,Diameter,70.77,mm,2021-07-05,4,WEEK 24,169,
SYNTH-ONC-001,TR,SYNTH-ONC-001-0123,540,DIAM,Diameter,73.9,mm,2021-09-27,5,WEEK 36,253,
SYNTH-ONC-001,TR,SYNTH-ONC-001-0123,541,DIAM,Diameter,85.58,mm,2021-12-20,6,WEEK 48,337,
SYNTH-ONC-001,TR,SYNTH-ONC-001-0123,542,DIAM,Diameter,76.06,mm,2022-03-14,7,WEEK 60,421,
SYNTH-ONC-001,TR,SYNTH-ONC-001-0124,543,DIAM,Diameter,51.81,mm,2021-06-22,2,BASELINE,1,Y
SYNTH-ONC-001,TR,SYNTH-ONC-001-0124,544,DIAM,Diameter,54.97,mm,2021-09-14,3,WEEK 12,85,
SYNTH-ONC-001,TR,SYNTH-ONC-001-0125,545,DIAM,Diameter,43.81,mm,2021-08-09,2,BASELINE,1,Y
SYNTH-ONC-001,TR,SYNTH-ONC-001-0126,546,DIAM,Diameter,53.13,mm,2021-06-08,2,BASELINE,1,Y
SYNTH-ONC-001,TR,SYNTH-ONC-001-0126,547,DIAM,Diameter,67.45,mm,2021-08-31,3,WEEK 12,85,
SYNTH-ONC-001,TR,SYNTH-ONC-001-0127,548,DIAM,Diameter,43.04,mm,2022-04-23,2,BASELINE,1,Y
SYNTH-ONC-001,TR,SYNTH-ONC-001-0128,549,DIAM,Diameter,59.62,mm,2021-02-16,2,BASELINE,1,Y
SYNTH-ONC-001,TR,SYNTH-ONC-001-0128,550,DIAM,Diameter,38.6,mm,2021-05-11,3,WEEK 12,85,
SYNTH-ONC-001,TR,SYNTH-ONC-001-0128,551,DIAM,Diameter,43.47,mm,2021-08-03,4,WEEK 24,169,
SYNTH-ONC-001,TR,SYNTH-ONC-001-0129,552,DIAM,Diameter,57.85,mm,2022-01-09,2,BASELINE,1,Y
SYNTH-ONC-001,TR,SYNTH-ONC-001-0129,553,DIAM,Diameter,59.65,mm,2022-04-03,3,WEEK 12,85,
SYNTH-ONC-001,TR,SYNTH-ONC-001-0129,554,DIAM,Diameter,53.02,mm,2022-06-26,4,WEEK 24,169,
SYNTH-ONC-001,TR,SYNTH-ONC-001-0129,555,DIAM,Diameter,44.15,mm,2022-09-18,5,WEEK 36,253,
SYNTH-ONC-001,TR,SYNTH-ONC-001-0129,556,DIAM,Diameter,38.49,mm,2022-12-11,6,WEEK 48,337,
SYNTH-ONC-001,TR,SYNTH-ONC-001-0129,557,DIAM,Diameter,25.4,mm,2023-03-05,7,WEEK 60,421,
SYNTH-ONC-001,TR,SYNTH-ONC-001-0129,558,DIAM,Diameter,1.0,mm,2023-05-28,8,WEEK 72,505,
SYNTH-ONC-001,TR,SYNTH-ONC-001-0129,559,DIAM,Diameter,1.0,mm,2023-08-20,9,WEEK 84,589,
SYNTH-ONC-001,TR,SYNTH-ONC-001-0129,560,DIAM,Diameter,1.0,mm,2023-11-12,10,WEEK 96,673,
SYNTH-ONC-001,TR,SYNTH-ONC-001-0129,561,DIAM,Diameter,1.0,mm,2024-02-04,11,WEEK 108,757,
SYNTH-ONC-001,TR,SYNTH-ONC-001-0130,562,DIAM,Diameter,56.36,mm,2022-06-03,2,BASELINE,1,Y
SYNTH-ONC-001,TR,SYNTH-ONC-001-0130,563,DIAM,Diameter,56.13,mm,2022-08-26,3,WEEK 12,85,
SYNTH-ONC-001,TR,SYNTH-ONC-001-0130,564,DIAM,Diameter,66.35,mm,2022-11-18,4,WEEK 24,169,
SYNTH-ONC-001,TR,SYNTH-ONC-001-0130,565,DIAM,Diameter,62.04,mm,2023-02-10,5,WEEK 36,253,
SYNTH-ONC-001,TR,SYNTH-ONC-001-0130,566,DIAM,Diameter,60.27,mm,2023-05-05,6,WEEK 48,337,
SYNTH-ONC-001,TR,SYNTH-ONC-001-0130,567,DIAM,Diameter,71.48,mm,2023-07-28,7,WEEK 60,421,
SYNTH-ONC-001,TR,SYNTH-ONC-001-0130,568,DIAM,Diameter,75.71,mm,2023-10-20,8,WEEK 72,505,
SYNTH-ONC-001,TR,SYNTH-ONC-001-0130,569,DIAM,Diameter,65.9,mm,2024-01-12,9,WEEK 84,589,
SYNTH-ONC-001,TR,SYNTH-ONC-001-0130,570,DIAM,Diameter,69.96,mm,2024-04-05,10,WEEK 96,673,
SYNTH-ONC-001,TR,SYNTH-ONC-001-0130,571,DIAM,Diameter,83.81,mm,2024-06-28,11,WEEK 108,757,
SYNTH-ONC-001,TR,SYNTH-ONC-001-0131,572,DIAM,Diameter,45.21,mm,2021-04-10,2,BASELINE,1,Y
SYNTH-ONC-001,TR,SYNTH-ONC-001-0131,573,DIAM,Diameter,52.0,mm,2021-07-03,3,WEEK 12,85,
SYNTH-ONC-001,TR,SYNTH-ONC-001-0131,574,DIAM,Diameter,47.2,mm,2021-09-25,4,WEEK 24,169,
SYNTH-ONC-001,TR,SYNTH-ONC-001-0131,575,DIAM,Diameter,48.11,mm,2021-12-18,5,WEEK 36,253,
SYNTH-ONC-001,TR,SYNTH-ONC-001-0131,576,DIAM,Diameter,58.83,mm,2022-03-12,6,WEEK 48,337,
SYNTH-ONC-001,TR,SYNTH-ONC-001-0132,577,DIAM,Diameter,52.19,mm,2021-02-07,2,BASELINE,1,Y
SYNTH-ONC-001,TR,SYNTH-ONC-001-0132,578,DIAM,Diameter,64.51,mm,2021-05-02,3,WEEK 12,85,
SYNTH-ONC-001,TR,SYNTH-ONC-001-0132,579,DIAM,Diameter,69.91,mm,2021-07-25,4,WEEK 24,169,
SYNTH-ONC-001,TR,SYNTH-ONC-001-0132,580,DIAM,Diameter,89.66,mm,2021-10-17,5,WEEK 36,253,
SYNTH-ONC-001,TR,SYNTH-ONC-001-0132,581,DIAM,Diameter,79.14,mm,2022-01-09,6,WEEK 48,337,
SYNTH-ONC-001,TR,SYNTH-ONC-001-0132,582,DIAM,Diameter,79.4,mm,2022-04-03,7,WEEK 60,421,
SYNTH-ONC-001,TR,SYNTH-ONC-001-0132,583,DIAM,Diameter,72.73,mm,2022-06-26,8,WEEK 72,505,
SYNTH-ONC-001,TR,SYNTH-ONC-001-0132,584,DIAM,Diameter,66.6,mm,2022-09-18,9,WEEK 84,589,
SYNTH-ONC-001,TR,SYNTH-ONC-001-0132,585,DIAM,Diameter,60.54,mm,2022-12-11,10,WEEK 96,673,
SYNTH-ONC-001,TR,SYNTH-ONC-001-0132,586,DIAM,Diameter,63.88,mm,2023-03-05,11,WEEK 108,757,
SYNTH-ONC-001,TR,SYNTH-ONC-001-0133,587,DIAM,Diameter,52.26,mm,2021-10-08,2,BASELINE,1,Y
SYNTH-ONC-001,TR,SYNTH-ONC-001-0133,588,DIAM,Diameter,57.68,mm,2021-12-31,3,WEEK 12,85,
SYNTH-ONC-001,TR,SYNTH-ONC-001-0133,589,DIAM,Diameter,50.7,mm,2022-03-25,4,WEEK 24,169,
SYNTH-ONC-001,TR,SYNTH-ONC-001-0133,590,DIAM,Diameter,50.1,mm,2022-06-17,5,WEEK 36,253,
SYNTH-ONC-001,TR,SYNTH-ONC-001-0134,591,DIAM,Diameter,40.36,mm,2021-12-16,2,BASELINE,1,Y
SYNTH-ONC-001,TR,SYNTH-ONC-001-0134,592,DIAM,Diameter,49.84,mm,2022-03-10,3,WEEK 12,85,
SYNTH-ONC-001,TR,SYNTH-ONC-001-0135,593,DIAM,Diameter,41.3,mm,2022-05-13,2,BASELINE,1,Y
SYNTH-ONC-001,TR,SYNTH-ONC-001-0136,594,DIAM,Diameter,47.86,mm,2021-10-30,2,BASELINE,1,Y
SYNTH-ONC-001,TR,SYNTH-ONC-001-0137,595,DIAM,Diameter,55.6,mm,2021-07-01,2,BASELINE,1,Y
SYNTH-ONC-001,TR,SYNTH-ONC-001-0137,596,DIAM,Diameter,38.68,mm,2021-09-23,3,WEEK 12,85,
SYNTH-ONC-001,TR,SYNTH-ONC-001-0137,597,DIAM,Diameter,32.23,mm,2021-12-16,4,WEEK 24,169,
SYNTH-ONC-001,TR,SYNTH-ONC-001-0137,598,DIAM,Diameter,33.0,mm,2022-03-10,5,WEEK 36,253,
SYNTH-ONC-001,TR,SYNTH-ONC-001-0137,599,DIAM,Diameter,22.52,mm,2022-06-02,6,WEEK 48,337,
SYNTH-ONC-001,TR,SYNTH-ONC-001-0138,600,DIAM,Diameter,59.02,mm,2022-08-31,2,BASELINE,1,Y
SYNTH-ONC-001,TR,SYNTH-ONC-001-0138,601,DIAM,Diameter,44.43,mm,2022-11-23,3,WEEK 12,85,
SYNTH-ONC-001,TR,SYNTH-ONC-001-0138,602,DIAM,Diameter,43.0,mm,2023-02-15,4,WEEK 24,169,
SYNTH-ONC-001,TR,SYNTH-ONC-001-0138,603,DIAM,Diameter,46.48,mm,2023-05-10,5,WEEK 36,253,
SYNTH-ONC-001,TR,SYNTH-ONC-001-0138,604,DIAM,Diameter,40.05,mm,2023-08-02,6,WEEK 48,337,
SYNTH-ONC-001,TR,SYNTH-ONC-001-0138,605,DIAM,Diameter,43.71,mm,2023-10-25,7,WEEK 60,421,
SYNTH-ONC-001,TR,SYNTH-ONC-001-0138,606,DIAM,Diameter,54.19,mm,2024-01-17,8,WEEK 72,505,
SYNTH-ONC-001,TR,SYNTH-ONC-001-0138,607,DIAM,Diameter,41.16,mm,2024-04-10,9,WEEK 84,589,
SYNTH-ONC-001,TR,SYNTH-ONC-001-0139,608,DIAM,Diameter,38.11,mm,2021-04-10,2,BASELINE,1,Y
SYNTH-ONC-001,TR,SYNTH-ONC-001-0139,609,DIAM,Diameter,27.59,mm,2021-07-03,3,WEEK 12,85,
SYNTH-ONC-001,TR,SYNTH-ONC-001-0139,610,DIAM,Diameter,19.27,mm,2021-09-25,4,WEEK 24,169,
SYNTH-ONC-001,TR,SYNTH-ONC-001-0139,611,DIAM,Diameter,13.18,mm,2021-12-18,5,WEEK 36,253,
SYNTH-ONC-001,TR,SYNTH-ONC-001-0139,612,DIAM,Diameter,2.06,mm,2022-03-12,6,WEEK 48,337,
SYNTH-ONC-001,TR,SYNTH-ONC-001-0139,613,DIAM,Diameter,1.0,mm,2022-06-04,7,WEEK 60,421,
SYNTH-ONC-001,TR,SYNTH-ONC-001-0139,614,DIAM,Diameter,1.0,mm,2022-08-27,8,WEEK 72,505,
SYNTH-ONC-001,TR,SYNTH-ONC-001-0139,615,DIAM,Diameter,1.0,mm,2022-11-19,9,WEEK 84,589,
SYNTH-ONC-001,TR,SYNTH-ONC-001-0139,616,DIAM,Diameter,1.0,mm,2023-02-11,10,WEEK 96,673,
SYNTH-ONC-001,TR,SYNTH-ONC-001-0139,617,DIAM,Diameter,1.0,mm,2023-05-06,11,WEEK 108,757,
SYNTH-ONC-001,TR,SYNTH-ONC-001-0140,618,DIAM,Diameter,51.99,mm,2022-12-02,2,BASELINE,1,Y
SYNTH-ONC-001,TR,SYNTH-ONC-001-0141,619,DIAM,Diameter,43.42,mm,2021-04-27,2,BASELINE,1,Y
SYNTH-ONC-001,TR,SYNTH-ONC-001-0141,620,DIAM,Diameter,42.27,mm,2021-07-20,3,WEEK 12,85,
SYNTH-ONC-001,TR,SYNTH-ONC-001-0142,621,DIAM,Diameter,53.98,mm,2021-07-11,2,BASELINE,1,Y
SYNTH-ONC-001,TR,SYNTH-ONC-001-0143,622,DIAM,Diameter,51.58,mm,2021-09-11,2,BASELINE,1,Y
SYNTH-ONC-001,TR,SYNTH-ONC-001-0143,623,DIAM,Diameter,38.09,mm,2021-12-04,3,WEEK 12,85,
SYNTH-ONC-001,TR,SYNTH-ONC-001-0144,624,DIAM,Diameter,32.59,mm,2021-06-11,2,BASELINE,1,Y
SYNTH-ONC-001,TR,SYNTH-ONC-001-0145,625,DIAM,Diameter,49.96,mm,2021-09-14,2,BASELINE,1,Y
SYNTH-ONC-001,TR,SYNTH-ONC-001-0145,626,DIAM,Diameter,30.2,mm,2021-12-07,3,WEEK 12,85,
SYNTH-ONC-001,TR,SYNTH-ONC-001-0146,627,DIAM,Diameter,59.83,mm,2021-11-20,2,BASELINE,1,Y
SYNTH-ONC-001,TR,SYNTH-ONC-001-0146,628,DIAM,Diameter,59.36,mm,2022-02-12,3,WEEK 12,85,
SYNTH-ONC-001,TR,SYNTH-ONC-001-0146,629,DIAM,Diameter,53.39,mm,2022-05-07,4,WEEK 24,169,
SYNTH-ONC-001,TR,SYNTH-ONC-001-0146,630,DIAM,Diameter,54.9,mm,2022-07-30,5,WEEK 36,253,
SYNTH-ONC-001,TR,SYNTH-ONC-001-0146,631,DIAM,Diameter,67.06,mm,2022-10-22,6,WEEK 48,337,
SYNTH-ONC-001,TR,SYNTH-ONC-001-0146,632,DIAM,Diameter,74.11,mm,2023-01-14,7,WEEK 60,421,
SYNTH-ONC-001,TR,SYNTH-ONC-001-0146,633,DIAM,Diameter,77.87,mm,2023-04-08,8,WEEK 72,505,
SYNTH-ONC-001,TR,SYNTH-ONC-001-0146,634,DIAM,Diameter,69.26,mm,2023-07-01,9,WEEK 84,589,
SYNTH-ONC-001,TR,SYNTH-ONC-001-0147,635,DIAM,Diameter,66.22,mm,2021-05-09,2,BASELINE,1,Y
SYNTH-ONC-001,TR,SYNTH-ONC-001-0147,636,DIAM,Diameter,63.24,mm,2021-08-01,3,WEEK 12,85,
SYNTH-ONC-001,TR,SYNTH-ONC-001-0147,637,DIAM,Diameter,72.71,mm,2021-10-24,4,WEEK 24,169,
SYNTH-ONC-001,TR,SYNTH-ONC-001-0147,638,DIAM,Diameter,72.11,mm,2022-01-16,5,WEEK 36,253,
SYNTH-ONC-001,TR,SYNTH-ONC-001-0147,639,DIAM,Diameter,80.81,mm,2022-04-10,6,WEEK 48,337,
SYNTH-ONC-001,TR,SYNTH-ONC-001-0147,640,DIAM,Diameter,93.27,mm,2022-07-03,7,WEEK 60,421,
SYNTH-ONC-001,TR,SYNTH-ONC-001-0148,641,DIAM,Diameter,56.48,mm,2021-01-19,2,BASELINE,1,Y
SYNTH-ONC-001,TR,SYNTH-ONC-001-0148,642,DIAM,Diameter,64.53,mm,2021-04-13,3,WEEK 12,85,
SYNTH-ONC-001,TR,SYNTH-ONC-001-0148,643,DIAM,Diameter,65.74,mm,2021-07-06,4,WEEK 24,169,
SYNTH-ONC-001,TR,SYNTH-ONC-001-0148,644,DIAM,Diameter,64.27,mm,2021-09-28,5,WEEK 36,253,
SYNTH-ONC-001,TR,SYNTH-ONC-001-0149,645,DIAM,Diameter,51.38,mm,2022-07-21,2,BASELINE,1,Y
SYNTH-ONC-001,TR,SYNTH-ONC-001-0149,646,DIAM,Diameter,50.66,mm,2022-10-13,3,WEEK 12,85,
SYNTH-ONC-001,TR,SYNTH-ONC-001-0149,647,DIAM,Diameter,72.4,mm,2023-01-05,4,WEEK 24,169,
SYNTH-ONC-001,TR,SYNTH-ONC-001-0149,648,DIAM,Diameter,66.46,mm,2023-03-30,5,WEEK 36,253,
SYNTH-ONC-001,TR,SYNTH-ONC-001-0149,649,DIAM,Diameter,76.48,mm,2023-06-22,6,WEEK 48,337,
SYNTH-ONC-001,TR,SYNTH-ONC-001-0149,650,DIAM,Diameter,82.62,mm,2023-09-14,7,WEEK 60,421,
SYNTH-ONC-001,TR,SYNTH-ONC-001-0149,651,DIAM,Diameter,86.46,mm,2023-12-07,8,WEEK 72,505,
SYNTH-ONC-001,TR,SYNTH-ONC-001-0150,652,DIAM,Diameter,64.8,mm,2022-07-25,2,BASELINE,1,Y
SYNTH-ONC-001,TR,SYNTH-ONC-001-0151,653,DIAM,Diameter,52.98,mm,2021-11-20,2,BASELINE,1,Y
SYNTH-ONC-001,TR,SYNTH-ONC-001-0151,654,DIAM,Diameter,49.9,mm,2022-02-12,3,WEEK 12,85,
SYNTH-ONC-001,TR,SYNTH-ONC-001-0151,655,DIAM,Diameter,54.24,mm,2022-05-07,4,WEEK 24,169,
SYNTH-ONC-001,TR,SYNTH-ONC-001-0151,656,DIAM,Diameter,54.77,mm,2022-07-30,5,WEEK 36,253,
SYNTH-ONC-001,TR,SYNTH-ONC-001-0151,657,DIAM,Diameter,60.8,mm,2022-10-22,6,WEEK 48,337,
SYNTH-ONC-001,TR,SYNTH-ONC-001-0151,658,DIAM,Diameter,69.3,mm,2023-01-14,7,WEEK 60,421,
SYNTH-ONC-001,TR,SYNTH-ONC-001-0151,659,DIAM,Diameter,64.43,mm,2023-04-08,8,WEEK 72,505,
SYNTH-ONC-001,TR,SYNTH-ONC-001-0151,660,DIAM,Diameter,75.99,mm,2023-07-01,9,WEEK 84,589,
SYNTH-ONC-001,TR,SYNTH-ONC-001-0151,661,DIAM,Diameter,75.95,mm,2023-09-23,10,WEEK 96,673,
SYNTH-ONC-001,TR,SYNTH-ONC-001-0151,662,DIAM,Diameter,81.5,mm,2023-12-16,11,WEEK 108,757,
SYNTH-ONC-001,TR,SYNTH-ONC-001-0152,663,DIAM,Diameter,56.17,mm,2022-11-18,2,BASELINE,1,Y
SYNTH-ONC-001,TR,SYNTH-ONC-001-0152,664,DIAM,Diameter,61.11,mm,2023-02-10,3,WEEK 12,85,
SYNTH-ONC-001,TR,SYNTH-ONC-001-0152,665,DIAM,Diameter,62.24,mm,2023-05-05,4,WEEK 24,169,
SYNTH-ONC-001,TR,SYNTH-ONC-001-0153,666,DIAM,Diameter,45.11,mm,2022-09-19,2,BASELINE,1,Y
SYNTH-ONC-001,TR,SYNTH-ONC-001-0154,667,DIAM,Diameter,47.31,mm,2021-10-16,2,BASELINE,1,Y
SYNTH-ONC-001,TR,SYNTH-ONC-001-0154,668,DIAM,Diameter,61.83,mm,2022-01-08,3,WEEK 12,85,
SYNTH-ONC-001,TR,SYNTH-ONC-001-0154,669,DIAM,Diameter,56.9,mm,2022-04-02,4,WEEK 24,169,
SYNTH-ONC-001,TR,SYNTH-ONC-001-0154,670,DIAM,Diameter,53.15,mm,2022-06-25,5,WEEK 36,253,
SYNTH-ONC-001,TR,SYNTH-ONC-001-0154,671,DIAM,Diameter,49.05,mm,2022-09-17,6,WEEK 48,337,
SYNTH-ONC-001,TR,SYNTH-ONC-001-0154,672,DIAM,Diameter,52.13,mm,2022-12-10,7,WEEK 60,421,
SYNTH-ONC-001,TR,SYNTH-ONC-001-0154,673,DIAM,Diameter,41.93,mm,2023-03-04,8,WEEK 72,505,
SYNTH-ONC-001,TR,SYNTH-ONC-001-0154,674,DIAM,Diameter,33.11,mm,2023-05-27,9,WEEK 84,589,
SYNTH-ONC-001,TR,SYNTH-ONC-001-0155,675,DIAM,Diameter,47.39,mm,2022-10-26,2,BASELINE,1,Y
SYNTH-ONC-001,TR,SYNTH-ONC-001-0156,676,DIAM,Diameter,37.12,mm,2022-10-02,2,BASELINE,1,Y
SYNTH-ONC-001,TR,SYNTH-ONC-001-0156,677,DIAM,Diameter,15.47,mm,2022-12-25,3,WEEK 12,85,
SYNTH-ONC-001,TR,SYNTH-ONC-001-0156,678,DIAM,Diameter,1.0,mm,2023-03-19,4,WEEK 24,169,
SYNTH-ONC-001,TR,SYNTH-ONC-001-0156,679,DIAM,Diameter,1.0,mm,2023-06-11,5,WEEK 36,253,
SYNTH-ONC-001,TR,SYNTH-ONC-001-0156,680,DIAM,Diameter,1.0,mm,2023-09-03,6,WEEK 48,337,
SYNTH-ONC-001,TR,SYNTH-ONC-001-0156,681,DIAM,Diameter,1.0,mm,2023-11-26,7,WEEK 60,421,
SYNTH-ONC-001,TR,SYNTH-ONC-001-0156,682,DIAM,Diameter,4.35,mm,2024-02-18,8,WEEK 72,505,
SYNTH-ONC-001,TR,SYNTH-ONC-001-0156,683,DIAM,Diameter,7.41,mm,2024-05-12,9,WEEK 84,589,
SYNTH-ONC-001,TR,SYNTH-ONC-001-0156,684,DIAM,Diameter,1.7,mm,2024-08-04,10,WEEK 96,673,
SYNTH-ONC-001,TR,SYNTH-ONC-001-0156,685,DIAM,Diameter,1.0,mm,2024-10-27,11,WEEK 108,757,
SYNTH-ONC-001,TR,SYNTH-ONC-001-0157,686,DIAM,Diameter,51.31,mm,2021-06-05,2,BASELINE,1,Y
SYNTH-ONC-001,TR,SYNTH-ONC-001-0157,687,DIAM,Diameter,57.47,mm,2021-08-28,3,WEEK 12,85,
SYNTH-ONC-001,TR,SYNTH-ONC-001-0158,688,DIAM,Diameter,69.44,mm,2022-05-06,2,BASELINE,1,Y
SYNTH-ONC-001,TR,SYNTH-ONC-001-0158,689,DIAM,Diameter,74.41,mm,2022-07-29,3,WEEK 12,85,
SYNTH-ONC-001,TR,SYNTH-ONC-001-0158,690,DIAM,Diameter,85.63,mm,2022-10-21,4,WEEK 24,169,
SYNTH-ONC-001,TR,SYNTH-ONC-001-0158,691,DIAM,Diameter,80.16,mm,2023-01-13,5,WEEK 36,253,
SYNTH-ONC-001,TR,SYNTH-ONC-001-0158,692,DIAM,Diameter,76.83,mm,2023-04-07,6,WEEK 48,337,
SYNTH-ONC-001,TR,SYNTH-ONC-001-0159,693,DIAM,Diameter,53.12,mm,2022-01-22,2,BASELINE,1,Y
SYNTH-ONC-001,TR,SYNTH-ONC-001-0160,694,DIAM,Diameter,51.5,mm,2021-04-15,2,BASELINE,1,Y
SYNTH-ONC-001,TR,SYNTH-ONC-001-0160,695,DIAM,Diameter,34.54,mm,2021-07-08,3,WEEK 12,85,
SYNTH-ONC-001,TR,SYNTH-ONC-001-0160,696,DIAM,Diameter,41.8,mm,2021-09-30,4,WEEK 24,169,
SYNTH-ONC-001,TR,SYNTH-ONC-001-0160,697,DIAM,Diameter,31.18,mm,2021-12-23,5,WEEK 36,253,
SYNTH-ONC-001,TR,SYNTH-ONC-001-0160,698,DIAM,Diameter,15.64,mm,2022-03-17,6,WEEK 48,337,
SYNTH-ONC-001,TR,SYNTH-ONC-001-0160,699,DIAM,Diameter,4.85,mm,2022-06-09,7,WEEK 60,421,
SYNTH-ONC-001,TR,SYNTH-ONC-001-0160,700,DIAM,Diameter,1.0,mm,2022-09-01,8,WEEK 72,505,
SYNTH-ONC-001,TR,SYNTH-ONC-001-0160,701,DIAM,Diameter,1.0,mm,2022-11-24,9,WEEK 84,589,
SYNTH-ONC-001,TR,SYNTH-ONC-001-0160,702,DIAM,Diameter,1.0,mm,2023-02-16,10,WEEK 96,673,
SYNTH-ONC-001,TR,SYNTH-ONC-001-0160,703,DIAM,Diameter,1.0,mm,2023-05-11,11,WEEK 108,757,
SYNTH-ONC-001,TR,SYNTH-ONC-001-0161,704,DIAM,Diameter,63.49,mm,2022-01-29,2,BASELINE,1,Y
SYNTH-ONC-001,TR,SYNTH-ONC-001-0161,705,DIAM,Diameter,77.25,mm,2022-04-23,3,WEEK 12,85,
SYNTH-ONC-001,TR,SYNTH-ONC-001-0161,706,DIAM,Diameter,81.85,mm,2022-07-16,4,WEEK 24,169,
SYNTH-ONC-001,TR,SYNTH-ONC-001-0161,707,DIAM,Diameter,89.15,mm,2022-10-08,5,WEEK 36,253,
SYNTH-ONC-001,TR,SYNTH-ONC-001-0161,708,DIAM,Diameter,84.22,mm,2022-12-31,6,WEEK 48,337,
SYNTH-ONC-001,TR,SYNTH-ONC-001-0161,709,DIAM,Diameter,92.89,mm,2023-03-25,7,WEEK 60,421,
SYNTH-ONC-001,TR,SYNTH-ONC-001-0162,710,DIAM,Diameter,52.52,mm,2021-09-04,2,BASELINE,1,Y
SYNTH-ONC-001,TR,SYNTH-ONC-001-0162,711,DIAM,Diameter,50.83,mm,2021-11-27,3,WEEK 12,85,
SYNTH-ONC-001,TR,SYNTH-ONC-001-0162,712,DIAM,Diameter,59.75,mm,2022-02-19,4,WEEK 24,169,
SYNTH-ONC-001,TR,SYNTH-ONC-001-0162,713,DIAM,Diameter,68.98,mm,2022-05-14,5,WEEK 36,253,
SYNTH-ONC-001,TR,SYNTH-ONC-001-0162,714,DIAM,Diameter,71.47,mm,2022-08-06,6,WEEK 48,337,
SYNTH-ONC-001,TR,SYNTH-ONC-001-0162,715,DIAM,Diameter,76.97,mm,2022-10-29,7,WEEK 60,421,
SYNTH-ONC-001,TR,SYNTH-ONC-001-0162,716,DIAM,Diameter,70.72,mm,2023-01-21,8,WEEK 72,505,
SYNTH-ONC-001,TR,SYNTH-ONC-001-0162,717,DIAM,Diameter,82.66,mm,2023-04-15,9,WEEK 84,589,
SYNTH-ONC-001,TR,SYNTH-ONC-001-0162,718,DIAM,Diameter,77.47,mm,2023-07-08,10,WEEK 96,673,
SYNTH-ONC-001,TR,SYNTH-ONC-001-0162,719,DIAM,Diameter,73.83,mm,2023-09-30,11,WEEK 108,757,
SYNTH-ONC-001,TR,SYNTH-ONC-001-0163,720,DIAM,Diameter,50.62,mm,2021-06-26,2,BASELINE,1,Y
SYNTH-ONC-001,TR,SYNTH-ONC-001-0164,721,DIAM,Diameter,61.15,mm,2021-02-09,2,BASELINE,1,Y
SYNTH-ONC-001,TR,SYNTH-ONC-001-0164,722,DIAM,Diameter,72.06,mm,2021-05-04,3,WEEK 12,85,
SYNTH-ONC-001,TR,SYNTH-ONC-001-0164,723,DIAM,Diameter,74.02,mm,2021-07-27,4,WEEK 24,169,
SYNTH-ONC-001,TR,SYNTH-ONC-001-0164,724,DIAM,Diameter,82.2,mm,2021-10-19,5,WEEK 36,253,
SYNTH-ONC-001,TR,SYNTH-ONC-001-0165,725,DIAM,Diameter,33.11,mm,2022-04-23,2,BASELINE,1,Y
SYNTH-ONC-001,TR,SYNTH-ONC-001-0165,726,DIAM,Diameter,29.35,mm,2022-07-16,3,WEEK 12,85,
SYNTH-ONC-001,TR,SYNTH-ONC-001-0165,727,DIAM,Diameter,25.76,mm,2022-10-08,4,WEEK 24,169,
SYNTH-ONC-001,TR,SYNTH-ONC-001-0165,728,DIAM,Diameter,37.78,mm,2022-12-31,5,WEEK 36,253,
SYNTH-ONC-001,TR,SYNTH-ONC-001-0165,729,DIAM,Diameter,45.02,mm,2023-03-25,6,WEEK 48,337,
SYNTH-ONC-001,TR,SYNTH-ONC-001-0165,730,DIAM,Diameter,48.5,mm,2023-06-17,7,WEEK 60,421,
SYNTH-ONC-001,TR,SYNTH-ONC-001-0165,731,DIAM,Diameter,52.75,mm,2023-09-09,8,WEEK 72,505,
SYNTH-ONC-001,TR,SYNTH-ONC-001-0165,732,DIAM,Diameter,67.3,mm,2023-12-02,9,WEEK 84,589,
SYNTH-ONC-001,TR,SYNTH-ONC-001-0165,733,DIAM,Diameter,67.93,mm,2024-02-24,10,WEEK 96,673,
SYNTH-ONC-001,TR,SYNTH-ONC-001-0165,734,DIAM,Diameter,59.42,mm,2024-05-18,11,WEEK 108,757,
SYNTH-ONC-001,TR,SYNTH-ONC-001-0166,735,DIAM,Diameter,60.87,mm,2022-11-14,2,BASELINE,1,Y
SYNTH-ONC-001,TR,SYNTH-ONC-001-0166,736,DIAM,Diameter,64.33,mm,2023-02-06,3,WEEK 12,85,
SYNTH-ONC-001,TR,SYNTH-ONC-001-0166,737,DIAM,Diameter,73.96,mm,2023-05-01,4,WEEK 24,169,
SYNTH-ONC-001,TR,SYNTH-ONC-001-0167,738,DIAM,Diameter,49.55,mm,2022-06-23,2,BASELINE,1,Y
SYNTH-ONC-001,TR,SYNTH-ONC-001-0168,739,DIAM,Diameter,41.61,mm,2022-02-13,2,BASELINE,1,Y
SYNTH-ONC-001,TR,SYNTH-ONC-001-0168,740,DIAM,Diameter,46.84,mm,2022-05-08,3,WEEK 12,85,
SYNTH-ONC-001,TR,SYNTH-ONC-001-0168,741,DIAM,Diameter,48.92,mm,2022-07-31,4,WEEK 24,169,
SYNTH-ONC-001,TR,SYNTH-ONC-001-0169,742,DIAM,Diameter,51.85,mm,2022-06-10,2,BASELINE,1,Y
SYNTH-ONC-001,TR,SYNTH-ONC-001-0169,743,DIAM,Diameter,66.78,mm,2022-09-02,3,WEEK 12,85,
SYNTH-ONC-001,TR,SYNTH-ONC-001-0169,744,DIAM,Diameter,59.99,mm,2022-11-25,4,WEEK 24,169,
SYNTH-ONC-001,TR,SYNTH-ONC-001-0169,745,DIAM,Diameter,64.28,mm,2023-02-17,5,WEEK 36,253,
SYNTH-ONC-001,TR,SYNTH-ONC-001-0170,746,DIAM,Diameter,41.81,mm,2022-05-22,2,BASELINE,1,Y
SYNTH-ONC-001,TR,SYNTH-ONC-001-0170,747,DIAM,Diameter,23.09,mm,2022-08-14,3,WEEK 12,85,
SYNTH-ONC-001,TR,SYNTH-ONC-001-0170,748,DIAM,Diameter,24.69,mm,2022-11-06,4,WEEK 24,169,
SYNTH-ONC-001,TR,SYNTH-ONC-001-0170,749,DIAM,Diameter,26.94,mm,2023-01-29,5,WEEK 36,253,
SYNTH-ONC-001,TR,SYNTH-ONC-001-0170,750,DIAM,Diameter,33.93,mm,2023-04-23,6,WEEK 48,337,
SYNTH-ONC-001,TR,SYNTH-ONC-001-0170,751,DIAM,Diameter,34.19,mm,2023-07-16,7,WEEK 60,421,
SYNTH-ONC-001,TR,SYNTH-ONC-001-0170,752,DIAM,Diameter,24.28,mm,2023-10-08,8,WEEK 72,505,
SYNTH-ONC-001,TR,SYNTH-ONC-001-0170,753,DIAM,Diameter,19.7,mm,2023-12-31,9,WEEK 84,589,
SYNTH-ONC-001,TR,SYNTH-ONC-001-0170,754,DIAM,Diameter,32.23,mm,2024-03-24,10,WEEK 96,673,
SYNTH-ONC-001,TR,SYNTH-ONC-001-0170,755,DIAM,Diameter,27.54,mm,2024-06-16,11,WEEK 108,757,
SYNTH-ONC-001,TR,SYNTH-ONC-001-0171,756,DIAM,Diameter,65.83,mm,2021-02-06,2,BASELINE,1,Y
SYNTH-ONC-001,TR,SYNTH-ONC-001-0171,757,DIAM,Diameter,62.23,mm,2021-05-01,3,WEEK 12,85,
SYNTH-ONC-001,TR,SYNTH-ONC-001-0171,758,DIAM,Diameter,47.69,mm,2021-07-24,4,WEEK 24,169,
SYNTH-ONC-001,TR,SYNTH-ONC-001-0172,759,DIAM,Diameter,42.71,mm,2022-11-17,2,BASELINE,1,Y
SYNTH-ONC-001,TR,SYNTH-ONC-001-0172,760,DIAM,Diameter,53.09,mm,2023-02-09,3,WEEK 12,85,
SYNTH-ONC-001,TR,SYNTH-ONC-001-0172,761,DIAM,Diameter,53.17,mm,2023-05-04,4,WEEK 24,169,
SYNTH-ONC-001,TR,SYNTH-ONC-001-0172,762,DIAM,Diameter,42.8,mm,2023-07-27,5,WEEK 36,253,
SYNTH-ONC-001,TR,SYNTH-ONC-001-0173,763,DIAM,Diameter,55.62,mm,2021-01-21,2,BASELINE,1,Y
SYNTH-ONC-001,TR,SYNTH-ONC-001-0173,764,DIAM,Diameter,46.96,mm,2021-04-15,3,WEEK 12,85,
SYNTH-ONC-001,TR,SYNTH-ONC-001-0174,765,DIAM,Diameter,61.38,mm,2021-11-18,2,BASELINE,1,Y
SYNTH-ONC-001,TR,SYNTH-ONC-001-0174,766,DIAM,Diameter,66.17,mm,2022-02-10,3,WEEK 12,85,
SYNTH-ONC-001,TR,SYNTH-ONC-001-0175,767,DIAM,Diameter,44.51,mm,2022-05-28,2,BASELINE,1,Y
SYNTH-ONC-001,TR,SYNTH-ONC-001-0175,768,DIAM,Diameter,42.67,mm,2022-08-20,3,WEEK 12,85,
SYNTH-ONC-001,TR,SYNTH-ONC-001-0175,769,DIAM,Diameter,41.6,mm,2022-11-12,4,WEEK 24,169,
SYNTH-ONC-001,TR,SYNTH-ONC-001-0175,770,DIAM,Diameter,31.47,mm,2023-02-04,5,WEEK 36,253,
SYNTH-ONC-001,TR,SYNTH-ONC-001-0175,771,DIAM,Diameter,19.95,mm,2023-04-29,6,WEEK 48,337,
SYNTH-ONC-001,TR,SYNTH-ONC-001-0175,772,DIAM,Diameter,1.0,mm,2023-07-22,7,WEEK 60,421,
SYNTH-ONC-001,TR,SYNTH-ONC-001-0175,773,DIAM,Diameter,1.0,mm,2023-10-14,8,WEEK 72,505,
SYNTH-ONC-001,TR,SYNTH-ONC-001-0175,774,DIAM,Diameter,1.0,mm,2024-01-06,9,WEEK 84,589,
SYNTH-ONC-001,TR,SYNTH-ONC-001-0175,775,DIAM,Diameter,1.0,mm,2024-03-30,10,WEEK 96,673,
SYNTH-ONC-001,TR,SYNTH-ONC-001-0175,776,DIAM,Diameter,1.0,mm,2024-06-22,11,WEEK 108,757,
SYNTH-ONC-001,TR,SYNTH-ONC-001-0176,777,DIAM,Diameter,84.96,mm,2022-02-05,2,BASELINE,1,Y
SYNTH-ONC-001,TR,SYNTH-ONC-001-0176,778,DIAM,Diameter,75.25,mm,2022-04-30,3,WEEK 12,85,
SYNTH-ONC-001,TR,SYNTH-ONC-001-0176,779,DIAM,Diameter,95.31,mm,2022-07-23,4,WEEK 24,169,
SYNTH-ONC-001,TR,SYNTH-ONC-001-0177,780,DIAM,Diameter,46.93,mm,2022-10-17,2,BASELINE,1,Y
SYNTH-ONC-001,TR,SYNTH-ONC-001-0177,781,DIAM,Diameter,48.25,mm,2023-01-09,3,WEEK 12,85,
SYNTH-ONC-001,TR,SYNTH-ONC-001-0177,782,DIAM,Diameter,44.87,mm,2023-04-03,4,WEEK 24,169,
SYNTH-ONC-001,TR,SYNTH-ONC-001-0177,783,DIAM,Diameter,53.13,mm,2023-06-26,5,WEEK 36,253,
SYNTH-ONC-001,TR,SYNTH-ONC-001-0177,784,DIAM,Diameter,43.62,mm,2023-09-18,6,WEEK 48,337,
SYNTH-ONC-001,TR,SYNTH-ONC-001-0177,785,DIAM,Diameter,30.89,mm,2023-12-11,7,WEEK 60,421,
SYNTH-ONC-001,TR,SYNTH-ONC-001-0177,786,DIAM,Diameter,45.77,mm,2024-03-04,8,WEEK 72,505,
SYNTH-ONC-001,TR,SYNTH-ONC-001-0177,787,DIAM,Diameter,41.34,mm,2024-05-27,9,WEEK 84,589,
SYNTH-ONC-001,TR,SYNTH-ONC-001-0177,788,DIAM,Diameter,49.31,mm,2024-08-19,10,WEEK 96,673,
SYNTH-ONC-001,TR,SYNTH-ONC-001-0177,789,DIAM,Diameter,42.63,mm,2024-11-11,11,WEEK 108,757,
SYNTH-ONC-001,TR,SYNTH-ONC-001-0178,790,DIAM,Diameter,57.08,mm,2022-04-17,2,BASELINE,1,Y
SYNTH-ONC-001,TR,SYNTH-ONC-001-0178,791,DIAM,Diameter,72.55,mm,2022-07-10,3,WEEK 12,85,
SYNTH-ONC-001,TR,SYNTH-ONC-001-0178,792,DIAM,Diameter,70.34,mm,2022-10-02,4,WEEK 24,169,
SYNTH-ONC-001,TR,SYNTH-ONC-001-0178,793,DIAM,Diameter,56.87,mm,2022-12-25,5,WEEK 36,253,
SYNTH-ONC-001,TR,SYNTH-ONC-001-0178,794,DIAM,Diameter,72.38,mm,2023-03-19,6,WEEK 48,337,
SYNTH-ONC-001,TR,SYNTH-ONC-001-0178,795,DIAM,Diameter,81.79,mm,2023-06-11,7,WEEK 60,421,
SYNTH-ONC-001,TR,SYNTH-ONC-001-0179,796,DIAM,Diameter,45.26,mm,2021-05-24,2,BASELINE,1,Y
SYNTH-ONC-001,TR,SYNTH-ONC-001-0179,797,DIAM,Diameter,45.52,mm,2021-08-16,3,WEEK 12,85,
SYNTH-ONC-001,TR,SYNTH-ONC-001-0179,798,DIAM,Diameter,38.64,mm,2021-11-08,4,WEEK 24,169,
SYNTH-ONC-001,TR,SYNTH-ONC-001-0179,799,DIAM,Diameter,52.0,mm,2022-01-31,5,WEEK 36,253,
SYNTH-ONC-001,TR,SYNTH-ONC-001-0179,800,DIAM,Diameter,49.72,mm,2022-04-25,6,WEEK 48,337,
SYNTH-ONC-001,TR,SYNTH-ONC-001-0179,801,DIAM,Diameter,40.37,mm,2022-07-18,7,WEEK 60,421,
SYNTH-ONC-001,TR,SYNTH-ONC-001-0179,802,DIAM,Diameter,44.08,mm,2022-10-10,8,WEEK 72,505,
SYNTH-ONC-001,TR,SYNTH-ONC-001-0179,803,DIAM,Diameter,39.2,mm,2023-01-02,9,WEEK 84,589,
SYNTH-ONC-001,TR,SYNTH-ONC-001-0179,804,DIAM,Diameter,32.96,mm,2023-03-27,10,WEEK 96,673,
SYNTH-ONC-001,TR,SYNTH-ONC-001-0179,805,DIAM,Diameter,31.52,mm,2023-06-19,11,WEEK 108,757,
SYNTH-ONC-001,TR,SYNTH-ONC-001-0180,806,DIAM,Diameter,50.86,mm,2021-04-03,2,BASELINE,1,Y
SYNTH-ONC-001,TR,SYNTH-ONC-001-0181,807,DIAM,Diameter,36.19,mm,2021-12-21,2,BASELINE,1,Y
SYNTH-ONC-001,TR,SYNTH-ONC-001-0182,808,DIAM,Diameter,63.85,mm,2022-12-29,2,BASELINE,1,Y
SYNTH-ONC-001,TR,SYNTH-ONC-001-0182,809,DIAM,Diameter,71.27,mm,2023-03-23,3,WEEK 12,85,
SYNTH-ONC-001,TR,SYNTH-ONC-001-0183,810,DIAM,Diameter,46.35,mm,2021-02-21,2,BASELINE,1,Y
SYNTH-ONC-001,TR,SYNTH-ONC-001-0183,811,DIAM,Diameter,27.12,mm,2021-05-16,3,WEEK 12,85,
SYNTH-ONC-001,TR,SYNTH-ONC-001-0183,812,DIAM,Diameter,14.41,mm,2021-08-08,4,WEEK 24,169,
SYNTH-ONC-001,TR,SYNTH-ONC-001-0183,813,DIAM,Diameter,9.6,mm,2021-10-31,5,WEEK 36,253,
SYNTH-ONC-001,TR,SYNTH-ONC-001-0183,814,DIAM,Diameter,3.56,mm,2022-01-23,6,WEEK 48,337,
SYNTH-ONC-001,TR,SYNTH-ONC-001-0183,815,DIAM,Diameter,1.0,mm,2022-04-17,7,WEEK 60,421,
SYNTH-ONC-001,TR,SYNTH-ONC-001-0183,816,DIAM,Diameter,1.0,mm,2022-07-10,8,WEEK 72,505,
SYNTH-ONC-001,TR,SYNTH-ONC-001-0183,817,DIAM,Diameter,1.0,mm,2022-10-02,9,WEEK 84,589,
SYNTH-ONC-001,TR,SYNTH-ONC-001-0183,818,DIAM,Diameter,1.0,mm,2022-12-25,10,WEEK 96,673,
SYNTH-ONC-001,TR,SYNTH-ONC-001-0183,819,DIAM,Diameter,1.0,mm,2023-03-19,11,WEEK 108,757,
SYNTH-ONC-001,TR,SYNTH-ONC-001-0184,820,DIAM,Diameter,56.66,mm,2022-10-28,2,BASELINE,1,Y
SYNTH-ONC-001,TR,SYNTH-ONC-001-0184,821,DIAM,Diameter,58.02,mm,2023-01-20,3,WEEK 12,85,
SYNTH-ONC-001,TR,SYNTH-ONC-001-0184,822,DIAM,Diameter,65.49,mm,2023-04-14,4,WEEK 24,169,
SYNTH-ONC-001,TR,SYNTH-ONC-001-0184,823,DIAM,Diameter,48.29,mm,2023-07-07,5,WEEK 36,253,
SYNTH-ONC-001,TR,SYNTH-ONC-001-0184,824,DIAM,Diameter,37.36,mm,2023-09-29,6,WEEK 48,337,
SYNTH-ONC-001,TR,SYNTH-ONC-001-0185,825,DIAM,Diameter,63.67,mm,2022-11-30,2,BASELINE,1,Y
SYNTH-ONC-001,TR,SYNTH-ONC-001-0185,826,DIAM,Diameter,58.91,mm,2023-02-22,3,WEEK 12,85,
SYNTH-ONC-001,TR,SYNTH-ONC-001-0186,827,DIAM,Diameter,44.18,mm,2022-07-30,2,BASELINE,1,Y
SYNTH-ONC-001,TR,SYNTH-ONC-001-0186,828,DIAM,Diameter,41.47,mm,2022-10-22,3,WEEK 12,85,
SYNTH-ONC-001,TR,SYNTH-ONC-001-0186,829,DIAM,Diameter,43.25,mm,2023-01-14,4,WEEK 24,169,
SYNTH-ONC-001,TR,SYNTH-ONC-001-0186,830,DIAM,Diameter,43.49,mm,2023-04-08,5,WEEK 36,253,
SYNTH-ONC-001,TR,SYNTH-ONC-001-0186,831,DIAM,Diameter,40.74,mm,2023-07-01,6,WEEK 48,337,
SYNTH-ONC-001,TR,SYNTH-ONC-001-0186,832,DIAM,Diameter,35.01,mm,2023-09-23,7,WEEK 60,421,
SYNTH-ONC-001,TR,SYNTH-ONC-001-0186,833,DIAM,Diameter,43.51,mm,2023-12-16,8,WEEK 72,505,
SYNTH-ONC-001,TR,SYNTH-ONC-001-0186,834,DIAM,Diameter,56.21,mm,2024-03-09,9,WEEK 84,589,
SYNTH-ONC-001,TR,SYNTH-ONC-001-0186,835,DIAM,Diameter,70.07,mm,2024-06-01,10,WEEK 96,673,
SYNTH-ONC-001,TR,SYNTH-ONC-001-0186,836,DIAM,Diameter,68.22,mm,2024-08-24,11,WEEK 108,757,
SYNTH-ONC-001,TR,SYNTH-ONC-001-0187,837,DIAM,Diameter,58.54,mm,2021-07-10,2,BASELINE,1,Y
SYNTH-ONC-001,TR,SYNTH-ONC-001-0187,838,DIAM,Diameter,48.43,mm,2021-10-02,3,WEEK 12,85,
SYNTH-ONC-001,TR,SYNTH-ONC-001-0187,839,DIAM,Diameter,31.86,mm,2021-12-25,4,WEEK 24,169,
SYNTH-ONC-001,TR,SYNTH-ONC-001-0187,840,DIAM,Diameter,25.74,mm,2022-03-19,5,WEEK 36,253,
SYNTH-ONC-001,TR,SYNTH-ONC-001-0187,841,DIAM,Diameter,8.8,mm,2022-06-11,6,WEEK 48,337,
SYNTH-ONC-001,TR,SYNTH-ONC-001-0187,842,DIAM,Diameter,1.0,mm,2022-09-03,7,WEEK 60,421,
SYNTH-ONC-001,TR,SYNTH-ONC-001-0187,843,DIAM,Diameter,1.0,mm,2022-11-26,8,WEEK 72,505,
SYNTH-ONC-001,TR,SYNTH-ONC-001-0187,844,DIAM,Diameter,1.0,mm,2023-02-18,9,WEEK 84,589,
SYNTH-ONC-001,TR,SYNTH-ONC-001-0188,845,DIAM,Diameter,52.54,mm,2021-05-06,2,BASELINE,1,Y
SYNTH-ONC-001,TR,SYNTH-ONC-001-0188,846,DIAM,Diameter,53.09,mm,2021-07-29,3,WEEK 12,85,
SYNTH-ONC-001,TR,SYNTH-ONC-001-0188,847,DIAM,Diameter,38.26,mm,2021-10-21,4,WEEK 24,169,
SYNTH-ONC-001,TR,SYNTH-ONC-001-0188,848,DIAM,Diameter,17.96,mm,2022-01-13,5,WEEK 36,253,
SYNTH-ONC-001,TR,SYNTH-ONC-001-0188,849,DIAM,Diameter,17.94,mm,2022-04-07,6,WEEK 48,337,
SYNTH-ONC-001,TR,SYNTH-ONC-001-0188,850,DIAM,Diameter,1.9,mm,2022-06-30,7,WEEK 60,421,
SYNTH-ONC-001,TR,SYNTH-ONC-001-0188,851,DIAM,Diameter,1.0,mm,2022-09-22,8,WEEK 72,505,
SYNTH-ONC-001,TR,SYNTH-ONC-001-0188,852,DIAM,Diameter,1.0,mm,2022-12-15,9,WEEK 84,589,
SYNTH-ONC-001,TR,SYNTH-ONC-001-0189,853,DIAM,Diameter,46.75,mm,2021-05-31,2,BASELINE,1,Y
SYNTH-ONC-001,TR,SYNTH-ONC-001-0189,854,DIAM,Diameter,67.16,mm,2021-08-23,3,WEEK 12,85,
SYNTH-ONC-001,TR,SYNTH-ONC-001-0189,855,DIAM,Diameter,72.96,mm,2021-11-15,4,WEEK 24,169,
SYNTH-ONC-001,TR,SYNTH-ONC-001-0189,856,DIAM,Diameter,73.79,mm,2022-02-07,5,WEEK 36,253,
SYNTH-ONC-001,TR,SYNTH-ONC-001-0189,857,DIAM,Diameter,68.39,mm,2022-05-02,6,WEEK 48,337,
SYNTH-ONC-001,TR,SYNTH-ONC-001-0189,858,DIAM,Diameter,73.03,mm,2022-07-25,7,WEEK 60,421,
SYNTH-ONC-001,TR,SYNTH-ONC-001-0189,859,DIAM,Diameter,86.69,mm,2022-10-17,8,WEEK 72,505,
SYNTH-ONC-001,TR,SYNTH-ONC-001-0189,860,DIAM,Diameter,91.18,mm,2023-01-09,9,WEEK 84,589,
SYNTH-ONC-001,TR,SYNTH-ONC-001-0189,861,DIAM,Diameter,86.4,mm,2023-04-03,10,WEEK 96,673,
SYNTH-ONC-001,TR,SYNTH-ONC-001-0189,862,DIAM,Diameter,92.71,mm,2023-06-26,11,WEEK 108,757,
SYNTH-ONC-001,TR,SYNTH-ONC-001-0190,863,DIAM,Diameter,49.51,mm,2021-11-11,2,BASELINE,1,Y
SYNTH-ONC-001,TR,SYNTH-ONC-001-0190,864,DIAM,Diameter,55.1,mm,2022-02-03,3,WEEK 12,85,
SYNTH-ONC-001,TR,SYNTH-ONC-001-0190,865,DIAM,Diameter,54.26,mm,2022-04-28,4,WEEK 24,169,
SYNTH-ONC-001,TR,SYNTH-ONC-001-0190,866,DIAM,Diameter,53.24,mm,2022-07-21,5,WEEK 36,253,
SYNTH-ONC-001,TR,SYNTH-ONC-001-0191,867,DIAM,Diameter,45.82,mm,2022-07-25,2,BASELINE,1,Y
SYNTH-ONC-001,TR,SYNTH-ONC-001-0191,868,DIAM,Diameter,55.36,mm,2022-10-17,3,WEEK 12,85,
SYNTH-ONC-001,TR,SYNTH-ONC-001-0191,869,DIAM,Diameter,54.41,mm,2023-01-09,4,WEEK 24,169,
SYNTH-ONC-001,TR,SYNTH-ONC-001-0191,870,DIAM,Diameter,52.74,mm,2023-04-03,5,WEEK 36,253,
SYNTH-ONC-001,TR,SYNTH-ONC-001-0191,871,DIAM,Diameter,47.2,mm,2023-06-26,6,WEEK 48,337,
SYNTH-ONC-001,TR,SYNTH-ONC-001-0191,872,DIAM,Diameter,52.83,mm,2023-09-18,7,WEEK 60,421,
SYNTH-ONC-001,TR,SYNTH-ONC-001-0191,873,DIAM,Diameter,57.33,mm,2023-12-11,8,WEEK 72,505,
SYNTH-ONC-001,TR,SYNTH-ONC-001-0191,874,DIAM,Diameter,55.74,mm,2024-03-04,9,WEEK 84,589,
SYNTH-ONC-001,TR,SYNTH-ONC-001-0191,875,DIAM,Diameter,52.06,mm,2024-05-27,10,WEEK 96,673,
SYNTH-ONC-001,TR,SYNTH-ONC-001-0191,876,DIAM,Diameter,69.07,mm,2024-08-19,11,WEEK 108,757,
SYNTH-ONC-001,TR,SYNTH-ONC-001-0192,877,DIAM,Diameter,31.2,mm,2021-12-09,2,BASELINE,1,Y
SYNTH-ONC-001,TR,SYNTH-ONC-001-0192,878,DIAM,Diameter,37.14,mm,2022-03-03,3,WEEK 12,85,
SYNTH-ONC-001,TR,SYNTH-ONC-001-0192,879,DIAM,Diameter,49.47,mm,2022-05-26,4,WEEK 24,169,
SYNTH-ONC-001,TR,SYNTH-ONC-001-0192,880,DIAM,Diameter,24.38,mm,2022-08-18,5,WEEK 36,253,
SYNTH-ONC-001,TR,SYNTH-ONC-001-0193,881,DIAM,Diameter,57.94,mm,2021-11-02,2,BASELINE,1,Y
SYNTH-ONC-001,TR,SYNTH-ONC-001-0193,882,DIAM,Diameter,58.18,mm,2022-01-25,3,WEEK 12,85,
SYNTH-ONC-001,TR,SYNTH-ONC-001-0193,883,DIAM,Diameter,62.23,mm,2022-04-19,4,WEEK 24,169,
SYNTH-ONC-001,TR,SYNTH-ONC-001-0193,884,DIAM,Diameter,61.64,mm,2022-07-12,5,WEEK 36,253,
SYNTH-ONC-001,TR,SYNTH-ONC-001-0193,885,DIAM,Diameter,72.25,mm,2022-10-04,6,WEEK 48,337,
SYNTH-ONC-001,TR,SYNTH-ONC-001-0194,886,DIAM,Diameter,53.63,mm,2022-11-24,2,BASELINE,1,Y
SYNTH-ONC-001,TR,SYNTH-ONC-001-0194,887,DIAM,Diameter,56.68,mm,2023-02-16,3,WEEK 12,85,
SYNTH-ONC-001,TR,SYNTH-ONC-001-0194,888,DIAM,Diameter,51.49,mm,2023-05-11,4,WEEK 24,169,
SYNTH-ONC-001,TR,SYNTH-ONC-001-0194,889,DIAM,Diameter,68.55,mm,2023-08-03,5,WEEK 36,253,
SYNTH-ONC-001,TR,SYNTH-ONC-001-0195,890,DIAM,Diameter,50.1,mm,2022-11-14,2,BASELINE,1,Y
SYNTH-ONC-001,TR,SYNTH-ONC-001-0196,891,DIAM,Diameter,72.9,mm,2021-02-24,2,BASELINE,1,Y
SYNTH-ONC-001,TR,SYNTH-ONC-001-0196,892,DIAM,Diameter,90.32,mm,2021-05-19,3,WEEK 12,85,
SYNTH-ONC-001,TR,SYNTH-ONC-001-0196,893,DIAM,Diameter,78.09,mm,2021-08-11,4,WEEK 24,169,
SYNTH-ONC-001,TR,SYNTH-ONC-001-0197,894,DIAM,Diameter,43.45,mm,2022-03-21,2,BASELINE,1,Y
SYNTH-ONC-001,TR,SYNTH-ONC-001-0197,895,DIAM,Diameter,37.15,mm,2022-06-13,3,WEEK 12,85,
SYNTH-ONC-001,TR,SYNTH-ONC-001-0197,896,DIAM,Diameter,38.77,mm,2022-09-05,4,WEEK 24,169,
SYNTH-ONC-001,TR,SYNTH-ONC-001-0197,897,DIAM,Diameter,42.27,mm,2022-11-28,5,WEEK 36,253,
SYNTH-ONC-001,TR,SYNTH-ONC-001-0198,898,DIAM,Diameter,52.3,mm,2022-09-06,2,BASELINE,1,Y
SYNTH-ONC-001,TR,SYNTH-ONC-001-0198,899,DIAM,Diameter,62.73,mm,2022-11-29,3,WEEK 12,85,
SYNTH-ONC-001,TR,SYNTH-ONC-001-0198,900,DIAM,Diameter,76.68,mm,2023-02-21,4,WEEK 24,169,
SYNTH-ONC-001,TR,SYNTH-ONC-001-0198,901,DIAM,Diameter,86.42,mm,2023-05-16,5,WEEK 36,253,
SYNTH-ONC-001,TR,SYNTH-ONC-001-0198,902,DIAM,Diameter,83.93,mm,2023-08-08,6,WEEK 48,337,
SYNTH-ONC-001,TR,SYNTH-ONC-001-0198,903,DIAM,Diameter,79.68,mm,2023-10-31,7,WEEK 60,421,
SYNTH-ONC-001,TR,SYNTH-ONC-001-0199,904,DIAM,Diameter,50.03,mm,2021-09-22,2,BASELINE,1,Y
SYNTH-ONC-001,TR,SYNTH-ONC-001-0200,905,DIAM,Diameter,54.26,mm,2021-02-23,2,BASELINE,1,Y
SYNTH-ONC-001,TR,SYNTH-ONC-001-0200,906,DIAM,Diameter,54.8,mm,2021-05-18,3,WEEK 12,85,
SYNTH-ONC-001,TR,SYNTH-ONC-001-0200,907,DIAM,Diameter,46.03,mm,2021-08-10,4,WEEK 24,169,
