{
    "datasetJSONCreationDateTime": "2025-12-29T08:08:51",
    "datasetJSONVersion": "1.1.0",
    "studyOID": "CDISCPILOT01",
    "metaDataVersionOID": "CDISC.ADaM.2.1",
    "itemGroupOID": "ADQSADAS",
    "records": 0,
    "name": "ADQSADAS",
    "label": "",
    "columns": [
        {
            "itemOID": "ADQSADAS.STUDYID",
            "name": "STUDYID",
            "label": "",
            "dataType": "string",
            "length": 12
        },
        {
            "itemOID": "ADQSADAS.SITEID",
            "name": "SITEID",
            "label": "",
            "dataType": "string",
            "length": 3
        },
        {
            "itemOID": "ADQSADAS.SITEGR1",
            "name": "SITEGR1",
            "label": "",
            "dataType": "string",
            "length": 3
        },
        {
            "itemOID": "ADQSADAS.USUBJID",
            "name": "USUBJID",
            "label": "",
            "dataType": "string",
            "length": 11
        },
        {
            "itemOID": "ADQSADAS.TRTSDT",
            "name": "TRTSDT",
            "label": "",
            "dataType": "date",
            "targetDataType": "integer",
            "length": 8
        },
        {
            "itemOID": "ADQSADAS.TRTEDT",
            "name": "TRTEDT",
            "label": "",
            "dataType": "date",
            "targetDataType": "integer",
            "length": 8
        },
        {
            "itemOID": "ADQSADAS.TRTP",
            "name": "TRTP",
            "label": "",
            "dataType": "string",
            "length": 20
        },
        {
            "itemOID": "ADQSADAS.TRTPN",
            "name": "TRTPN",
            "label": "",
            "dataType": "integer",
            "length": 8
        },
        {
            "itemOID": "ADQSADAS.AGE",
            "name": "AGE",
            "label": "",
            "dataType": "integer",
            "length": 8
        },
        {
            "itemOID": "ADQSADAS.AGEGR1",
            "name": "AGEGR1",
            "label": "",
            "dataType": "string",
            "length": 5
        },
        {
            "itemOID": "ADQSADAS.AGEGR1N",
            "name": "AGEGR1N",
            "label": "",
            "dataType": "integer",
            "length": 8
        },
        {
            "itemOID": "ADQSADAS.RACE",
            "name": "RACE",
            "label": "",
            "dataType": "string",
            "length": 32
        },
        {
            "itemOID": "ADQSADAS.RACEN",
            "name": "RACEN",
            "label": "",
            "dataType": "integer",
            "length": 8
        },
        {
            "itemOID": "ADQSADAS.SEX",
            "name": "SEX",
            "label": "",
            "dataType": "string",
            "length": 1
        },
        {
            "itemOID": "ADQSADAS.ITTFL",
            "name": "ITTFL",
            "label": "",
            "dataType": "string",
            "length": 1
        },
        {
            "itemOID": "ADQSADAS.EFFFL",
            "name": "EFFFL",
            "label": "",
            "dataType": "string",
            "length": 1
        },
        {
            "itemOID": "ADQSADAS.COMP24FL",
            "name": "COMP24FL",
            "label": "",
            "dataType": "string",
            "length": 1
        },
        {
            "itemOID": "ADQSADAS.AVISIT",
            "name": "AVISIT",
            "label": "",
            "dataType": "string",
            "length": 16
        },
        {
            "itemOID": "ADQSADAS.AVISITN",
            "name": "AVISITN",
            "label": "",
            "dataType": "integer",
            "length": 8
        },
        {
            "itemOID": "ADQSADAS.VISIT",
            "name": "VISIT",
            "label": "",
            "dataType": "string",
            "length": 19
        },
        {
            "itemOID": "ADQSADAS.VISITNUM",
            "name": "VISITNUM",
            "label": "",
            "dataType": "float",
            "length": 8
        },
        {
            "itemOID": "ADQSADAS.ADY",
            "name": "ADY",
            "label": "",
            "dataType": "integer",
            "length": 8
        },
        {
            "itemOID": "ADQSADAS.ADT",
            "name": "ADT",
            "label": "",
            "dataType": "date",
            "targetDataType": "integer",
            "length": 8
        },
        {
            "itemOID": "ADQSADAS.PARAM",
            "name": "PARAM",
            "label": "",
            "dataType": "string",
            "length": 100
        },
        {
            "itemOID": "ADQSADAS.PARAMCD",
            "name": "PARAMCD",
            "label": "",
            "dataType": "string",
            "length": 8
        },
        {
            "itemOID": "ADQSADAS.PARAMN",
            "name": "PARAMN",
            "label": "",
            "dataType": "integer",
            "length": 8
        },
        {
            "itemOID": "ADQSADAS.AVAL",
            "name": "AVAL",
            "label": "",
            "dataType": "integer",
            "length": 8
        },
        {
            "itemOID": "ADQSADAS.BASE",
            "name": "BASE",
            "label": "",
            "dataType": "integer",
            "length": 8
        },
        {
            "itemOID": "ADQSADAS.CHG",
            "name": "CHG",
            "label": "",
            "dataType": "integer",
            "length": 8
        },
        {
            "itemOID": "ADQSADAS.PCHG",
            "name": "PCHG",
            "label": "",
            "dataType": "integer",
            "length": 8
        },
        {
            "itemOID": "ADQSADAS.ABLFL",
            "name": "ABLFL",
            "label": "",
            "dataType": "string",
            "length": 1
        },
        {
            "itemOID": "ADQSADAS.ANL01FL",
            "name": "ANL01FL",
            "label": "",
            "dataType": "string",
            "length": 1
        },
        {
            "itemOID": "ADQSADAS.DTYPE",
            "name": "DTYPE",
            "label": "",
            "dataType": "string",
            "length": 7
        },
        {
            "itemOID": "ADQSADAS.AWRANGE",
            "name": "AWRANGE",
            "label": "",
            "dataType": "string",
            "length": 9
        },
        {
            "itemOID": "ADQSADAS.AWTARGET",
            "name": "AWTARGET",
            "label": "",
            "dataType": "integer",
            "length": 8
        },
        {
            "itemOID": "ADQSADAS.AWTDIFF",
            "name": "AWTDIFF",
            "label": "",
            "dataType": "integer",
            "length": 8
        },
        {
            "itemOID": "ADQSADAS.AWLO",
            "name": "AWLO",
            "label": "",
            "dataType": "integer",
            "length": 8
        },
        {
            "itemOID": "ADQSADAS.AWHI",
            "name": "AWHI",
            "label": "",
            "dataType": "integer",
            "length": 8
        },
        {
            "itemOID": "ADQSADAS.AWU",
            "name": "AWU",
            "label": "",
            "dataType": "string",
            "length": 4
        },
        {
            "itemOID": "ADQSADAS.QSSEQ",
            "name": "QSSEQ",
            "label": "",
            "dataType": "integer",
            "length": 8
        }
    ],
    "rows": []
}