{
    "datasetJSONCreationDateTime": "2025-12-29T08:08:52",
    "datasetJSONVersion": "1.1.0",
    "studyOID": "CDISCPILOT01",
    "metaDataVersionOID": "CDISC.ADaM.2.1",
    "itemGroupOID": "ADTTE",
    "records": 0,
    "name": "ADTTE",
    "label": "",
    "columns": [
        {
            "itemOID": "ADTTE.STUDYID",
            "name": "STUDYID",
            "label": "",
            "dataType": "string",
            "length": 12
        },
        {
            "itemOID": "ADTTE.SITEID",
            "name": "SITEID",
            "label": "",
            "dataType": "string",
            "length": 3
        },
        {
            "itemOID": "ADTTE.USUBJID",
            "name": "USUBJID",
            "label": "",
            "dataType": "string",
            "length": 11
        },
        {
            "itemOID": "ADTTE.AGE",
            "name": "AGE",
            "label": "",
            "dataType": "integer",
            "length": 8
        },
        {
            "itemOID": "ADTTE.AGEGR1",
            "name": "AGEGR1",
            "label": "",
            "dataType": "string",
            "length": 5
        },
        {
            "itemOID": "ADTTE.AGEGR1N",
            "name": "AGEGR1N",
            "label": "",
            "dataType": "integer",
            "length": 8
        },
        {
            "itemOID": "ADTTE.RACE",
            "name": "RACE",
            "label": "",
            "dataType": "string",
            "length": 32
        },
        {
            "itemOID": "ADTTE.RACEN",
            "name": "RACEN",
            "label": "",
            "dataType": "integer",
            "length": 8
        },
        {
            "itemOID": "ADTTE.SEX",
            "name": "SEX",
            "label": "",
            "dataType": "string",
            "length": 1
        },
        {
            "itemOID": "ADTTE.TRTSDT",
            "name": "TRTSDT",
            "label": "",
            "dataType": "date",
            "targetDataType": "integer",
            "length": 8
        },
        {
            "itemOID": "ADTTE.TRTEDT",
            "name": "TRTEDT",
            "label": "",
            "dataType": "date",
            "targetDataType": "integer",
            "length": 8
        },
        {
            "itemOID": "ADTTE.TRTDUR",
            "name": "TRTDUR",
            "label": "",
            "dataType": "integer",
            "length": 8
        },
        {
            "itemOID": "ADTTE.TRTP",
            "name": "TRTP",
            "label": "",
            "dataType": "string",
            "length": 20
        },
        {
            "itemOID": "ADTTE.TRTA",
            "name": "TRTA",
            "label": "",
            "dataType": "string",
            "length": 20
        },
        {
            "itemOID": "ADTTE.TRTAN",
            "name": "TRTAN",
            "label": "",
            "dataType": "integer",
            "length": 8
        },
        {
            "itemOID": "ADTTE.PARAM",
            "name": "PARAM",
            "label": "",
            "dataType": "string",
            "length": 100
        },
        {
            "itemOID": "ADTTE.PARAMCD",
            "name": "PARAMCD",
            "label": "",
            "dataType": "string",
            "length": 8
        },
        {
            "itemOID": "ADTTE.AVAL",
            "name": "AVAL",
            "label": "",
            "dataType": "integer",
            "length": 8
        },
        {
            "itemOID": "ADTTE.STARTDT",
            "name": "STARTDT",
            "label": "",
            "dataType": "date",
            "targetDataType": "integer",
            "length": 8
        },
        {
            "itemOID": "ADTTE.ADT",
            "name": "ADT",
            "label": "",
            "dataType": "date",
            "targetDataType": "integer",
            "length": 8
        },
        {
            "itemOID": "ADTTE.CNSR",
            "name": "CNSR",
            "label": "",
            "dataType": "integer",
            "length": 8
        },
        {
            "itemOID": "ADTTE.EVNTDESC",
            "name": "EVNTDESC",
            "label": "",
            "dataType": "string",
            "length": 25
        },
        {
            "itemOID": "ADTTE.SRCDOM",
            "name": "SRCDOM",
            "label": "",
            "dataType": "string",
            "length": 4
        },
        {
            "itemOID": "ADTTE.SRCVAR",
            "name": "SRCVAR",
            "label": "",
            "dataType": "string",
            "length": 6
        },
        {
            "itemOID": "ADTTE.SRCSEQ",
            "name": "SRCSEQ",
            "label": "",
            "dataType": "integer",
            "length": 8
        },
        {
            "itemOID": "ADTTE.SAFFL",
            "name": "SAFFL",
            "label": "",
            "dataType": "string",
            "length": 1
        }
    ],
    "rows": []
}