{
    "datasetJSONCreationDateTime": "2025-12-29T08:08:52",
    "datasetJSONVersion": "1.1.0",
    "studyOID": "CDISCPILOT01",
    "metaDataVersionOID": "CDISC.ADaM.2.1",
    "itemGroupOID": "ADVS",
    "records": 0,
    "name": "ADVS",
    "label": "",
    "columns": [
        {
            "itemOID": "ADVS.STUDYID",
            "name": "STUDYID",
            "label": "",
            "dataType": "string",
            "length": 12
        },
        {
            "itemOID": "ADVS.SITEID",
            "name": "SITEID",
            "label": "",
            "dataType": "string",
            "length": 3
        },
        {
            "itemOID": "ADVS.USUBJID",
            "name": "USUBJID",
            "label": "",
            "dataType": "string",
            "length": 11
        },
        {
            "itemOID": "ADVS.AGE",
            "name": "AGE",
            "label": "",
            "dataType": "integer",
            "length": 8
        },
        {
            "itemOID": "ADVS.AGEGR1",
            "name": "AGEGR1",
            "label": "",
            "dataType": "string",
            "length": 5
        },
        {
            "itemOID": "ADVS.AGEGR1N",
            "name": "AGEGR1N",
            "label": "",
            "dataType": "integer",
            "length": 8
        },
        {
            "itemOID": "ADVS.RACE",
            "name": "RACE",
            "label": "",
            "dataType": "string",
            "length": 32
        },
        {
            "itemOID": "ADVS.RACEN",
            "name": "RACEN",
            "label": "",
            "dataType": "integer",
            "length": 8
        },
        {
            "itemOID": "ADVS.SEX",
            "name": "SEX",
            "label": "",
            "dataType": "string",
            "length": 1
        },
        {
            "itemOID": "ADVS.SAFFL",
            "name": "SAFFL",
            "label": "",
            "dataType": "string",
            "length": 1
        },
        {
            "itemOID": "ADVS.TRTSDT",
            "name": "TRTSDT",
            "label": "",
            "dataType": "date",
            "targetDataType": "integer",
            "length": 8
        },
        {
            "itemOID": "ADVS.TRTEDT",
            "name": "TRTEDT",
            "label": "",
            "dataType": "date",
            "targetDataType": "integer",
            "length": 8
        },
        {
            "itemOID": "ADVS.TRTP",
            "name": "TRTP",
            "label": "",
            "dataType": "string",
            "length": 20
        },
        {
            "itemOID": "ADVS.TRTPN",
            "name": "TRTPN",
            "label": "",
            "dataType": "integer",
            "length": 8
        },
        {
            "itemOID": "ADVS.TRTA",
            "name": "TRTA",
            "label": "",
            "dataType": "string",
            "length": 20
        },
        {
            "itemOID": "ADVS.TRTAN",
            "name": "TRTAN",
            "label": "",
            "dataType": "integer",
            "length": 8
        },
        {
            "itemOID": "ADVS.PARAMCD",
            "name": "PARAMCD",
            "label": "",
            "dataType": "string",
            "length": 8
        },
        {
            "itemOID": "ADVS.PARAM",
            "name": "PARAM",
            "label": "",
            "dataType": "string",
            "length": 100
        },
        {
            "itemOID": "ADVS.PARAMN",
            "name": "PARAMN",
            "label": "",
            "dataType": "integer",
            "length": 8
        },
        {
            "itemOID": "ADVS.ADT",
            "name": "ADT",
            "label": "",
            "dataType": "date",
            "targetDataType": "integer",
            "length": 8
        },
        {
            "itemOID": "ADVS.ADY",
            "name": "ADY",
            "label": "",
            "dataType": "integer",
            "length": 8
        },
        {
            "itemOID": "ADVS.ATPTN",
            "name": "ATPTN",
            "label": "",
            "dataType": "integer",
            "length": 8
        },
        {
            "itemOID": "ADVS.ATPT",
            "name": "ATPT",
            "label": "",
            "dataType": "string",
            "length": 30
        },
        {
            "itemOID": "ADVS.AVISIT",
            "name": "AVISIT",
            "label": "",
            "dataType": "string",
            "length": 16
        },
        {
            "itemOID": "ADVS.AVISITN",
            "name": "AVISITN",
            "label": "",
            "dataType": "integer",
            "length": 8
        },
        {
            "itemOID": "ADVS.AVAL",
            "name": "AVAL",
            "label": "",
            "dataType": "float",
            "length": 8
        },
        {
            "itemOID": "ADVS.BASE",
            "name": "BASE",
            "label": "",
            "dataType": "float",
            "length": 8
        },
        {
            "itemOID": "ADVS.CHG",
            "name": "CHG",
            "label": "",
            "dataType": "float",
            "length": 8
        },
        {
            "itemOID": "ADVS.PCHG",
            "name": "PCHG",
            "label": "",
            "dataType": "float",
            "length": 8
        },
        {
            "itemOID": "ADVS.VISITNUM",
            "name": "VISITNUM",
            "label": "",
            "dataType": "float",
            "length": 8
        },
        {
            "itemOID": "ADVS.VISIT",
            "name": "VISIT",
            "label": "",
            "dataType": "string",
            "length": 19
        },
        {
            "itemOID": "ADVS.VSSEQ",
            "name": "VSSEQ",
            "label": "",
            "dataType": "integer",
            "length": 8
        },
        {
            "itemOID": "ADVS.ANL01FL",
            "name": "ANL01FL",
            "label": "",
            "dataType": "string",
            "length": 1
        },
        {
            "itemOID": "ADVS.ABLFL",
            "name": "ABLFL",
            "label": "",
            "dataType": "string",
            "length": 1
        }
    ],
    "rows": []
}