{"datasetJSONCreationDateTime": "2024-02-14T11:46:08", "datasetJSONVersion": "1.1.0", "fileOID": "CDISCPILOT01.ae", "originator": "360i", "studyOID": "CDISCPILOT01", "metaDataVersionOID": "MDV.CDISCPILOT01", "itemGroupOID": "IG.AE", "records": 1272, "name": "ae", "label": "Adverse Events (AE)", "columns": [{"itemOID": "IT.AE.STUDYID", "name": "STUDYID", "label": "Study Identifier", "dataType": "string", "length": 12, "displayFormat": "."}, {"itemOID": "IT.AE.SITEID", "name": "SITEID", "label": "Study Site Identifier", "dataType": "string", "length": 3, "displayFormat": "."}, {"itemOID": "IT.AE.SUBJID", "name": "SUBJID", "label": "Subject Identifier for the Study", "dataType": "string", "length": 4, "displayFormat": "."}, {"itemOID": "IT.AE.AEYN", "name": "AEYN", "label": "Any Adverse Event", "dataType": "string", "length": 1, "displayFormat": "."}, {"itemOID": "IT.AE.AESPID", "name": "AESPID", "label": "Adverse Event Sponsor-Defined Identifier", "dataType": "string", "length": 3, "displayFormat": "."}, {"itemOID": "IT.AE.AETERM", "name": "AETERM", "label": "Adverse Event Reported Term", "dataType": "string", "length": 200, "displayFormat": "."}, {"itemOID": "IT.AE.AELLT", "name": "AELLT", "label": "Adverse Event Lowest Level Term", "dataType": "string", "length": 100, "displayFormat": "."}, {"itemOID": "IT.AE.AELLTCD", "name": "AELLTCD", "label": "Adverse Event Lowest Level Term Code", "dataType": "float", "length": 8, "displayFormat": "."}, {"itemOID": "IT.AE.AEDECOD", "name": "AEDECOD", "label": "Adverse Event Dictionary-Derived/Standar", "dataType": "string", "length": 200, "displayFormat": "."}, {"itemOID": "IT.AE.AEPTCD", "name": "AEPTCD", "label": "Adverse Event Preferred Term Code", "dataType": "float", "length": 8, "displayFormat": "."}, {"itemOID": "IT.AE.AEHLT", "name": "AEHLT", "label": "Adverse Event High Level Term", "dataType": "string", "length": 100, "displayFormat": "."}, {"itemOID": "IT.AE.AEHLTCD", "name": "AEHLTCD", "label": "Adverse Event High Level Term Code", "dataType": "float", "length": 8, "displayFormat": "."}, {"itemOID": "IT.AE.AEHLGT", "name": "AEHLGT", "label": "Adverse Event High Level Group Term", "dataType": "string", "length": 100, "displayFormat": "."}, {"itemOID": "IT.AE.AEHLGTCD", "name": "AEHLGTCD", "label": "Adverse Event High Level Group Term Code", "dataType": "float", "length": 8, "displayFormat": "."}, {"itemOID": "IT.AE.AESOC", "name": "AESOC", "label": "Adverse Event Primary System Organ Class", "dataType": "string", "length": 100, "displayFormat": "."}, {"itemOID": "IT.AE.AESOCCD", "name": "AESOCCD", "label": "Adverse Event Primary System Organ Class", "dataType": "float", "length": 8, "displayFormat": "."}, {"itemOID": "IT.AE.AESEV", "name": "AESEV", "label": "Adverse Event Severity/Intensity", "dataType": "float", "length": 8, "displayFormat": "."}, {"itemOID": "IT.AE.AESER", "name": "AESER", "label": "Adverse Event Serious Event", "dataType": "string", "length": 2, "displayFormat": "."}, {"itemOID": "IT.AE.AEACN", "name": "AEACN", "label": "Action Taken with Study Treatment", "dataType": "string", "length": 30, "displayFormat": "."}, {"itemOID": "IT.AE.AEREL", "name": "AEREL", "label": "Adverse Event Causality", "dataType": "float", "length": 8, "displayFormat": "."}, {"itemOID": "IT.AE.AEOUT", "name": "AEOUT", "label": "Outcome of Adverse Event", "dataType": "string", "length": 200, "displayFormat": "."}, {"itemOID": "IT.AE.AESCAN", "name": "AESCAN", "label": "Involves Cancer", "dataType": "string", "length": 1, "displayFormat": "."}, {"itemOID": "IT.AE.AESCONG", "name": "AESCONG", "label": "Congenital Anomaly or Birth Defect", "dataType": "string", "length": 1, "displayFormat": "."}, {"itemOID": "IT.AE.AESDISAB", "name": "AESDISAB", "label": "Disability or Permanent Damage", "dataType": "string", "length": 1, "displayFormat": "."}, {"itemOID": "IT.AE.AESDTH", "name": "AESDTH", "label": "Results in Death", "dataType": "string", "length": 1, "displayFormat": "."}, {"itemOID": "IT.AE.DTHDAT", "name": "DTHDAT", "label": "Date of Death", "dataType": "string", "length": 11, "displayFormat": "."}, {"itemOID": "IT.AE.AESHOSP", "name": "AESHOSP", "label": "Initial or Prolonged Hospitalization", "dataType": "string", "length": 1, "displayFormat": "."}, {"itemOID": "IT.AE.AESLIFE", "name": "AESLIFE", "label": "Is Life Threatening", "dataType": "string", "length": 1, "displayFormat": "."}, {"itemOID": "IT.AE.AESOD", "name": "AESOD", "label": "Occurred with Overdose", "dataType": "string", "length": 1, "displayFormat": "."}, {"itemOID": "IT.AE.AEDAT", "name": "AEDAT", "label": "Adverse Event Date of Collection", "dataType": "string", "length": 11, "displayFormat": "."}, {"itemOID": "IT.AE.AESTDAT", "name": "AESTDAT", "label": "Adverse Event Start Date", "dataType": "string", "length": 11, "displayFormat": "."}, {"itemOID": "IT.AE.AEENDAT", "name": "AEENDAT", "label": "Adverse Event End Date", "dataType": "string", "length": 11, "displayFormat": "."}, {"itemOID": "IT.AE.AEONGO", "name": "AEONGO", "label": "Ongoing Adverse Event", "dataType": "string", "length": 1, "displayFormat": "."}]}
["CDISCPILOT01", "701", "1015", "Y", "E06", "DIARRHOEA", "DIARRHEA", null, "DIARRHOEA", null, "HLT_0148", null, "HLGT_0588", null, "GASTROINTESTINAL DISORDERS", null, 1, "No", "", 2, "RECOVERED/RESOLVED", "N", "N", "N", "N", "", "N", "N", "N", "16-JAN-2014", "09-JAN-2014", "11-JAN-2014", "N"]
["CDISCPILOT01", "701", "1015", "Y", "E07", "APPLICATION SITE ERYTHEMA", "APPLICATION SITE REDNESS", null, "APPLICATION SITE ERYTHEMA", null, "HLT_0617", null, "HLGT_0152", null, "GENERAL DISORDERS AND ADMINISTRATION SITE CONDITIONS", null, 1, "No", "", 4, "NOT RECOVERED/NOT RESOLVED", "N", "N", "N", "N", "", "N", "N", "N", "16-JAN-2014", "03-JAN-2014", "", "Y"]
["CDISCPILOT01", "701", "1015", "Y", "E08", "APPLICATION SITE PRURITUS", "APPLICATION SITE ITCHING", null, "APPLICATION SITE PRURITUS", null, "HLT_0317", null, "HLGT_0338", null, "GENERAL DISORDERS AND ADMINISTRATION SITE CONDITIONS", null, 1, "No", "", 4, "NOT RECOVERED/NOT RESOLVED", "N", "N", "N", "N", "", "N", "N", "N", "16-JAN-2014", "03-JAN-2014", "", "Y"]
["CDISCPILOT01", "701", "1023", "Y", "E08", "ERYTHEMA", "ERYTHEMA", null, "ERYTHEMA", null, "HLT_0284", null, "HLGT_0192", null, "SKIN AND SUBCUTANEOUS TISSUE DISORDERS", null, 1, "No", "", 3, "NOT RECOVERED/NOT RESOLVED", "N", "N", "N", "N", "", "N", "N", "N", "27-AUG-2012", "07-AUG-2012", "30-AUG-2012", "N"]
["CDISCPILOT01", "701", "1023", "Y", "E08", "ERYTHEMA", "ERYTHEMA", null, "ERYTHEMA", null, "HLT_0284", null, "HLGT_0192", null, "SKIN AND SUBCUTANEOUS TISSUE DISORDERS", null, 1, "No", "", 3, "RECOVERED/RESOLVED", "N", "N", "N", "N", "", "N", "N", "N", "02-SEP-2012", "07-AUG-2012", "30-AUG-2012", "N"]
["CDISCPILOT01", "701", "1023", "Y", "E09", "ERYTHEMA", "LOCALIZED ERYTHEMA", null, "ERYTHEMA", null, "HLT_0284", null, "HLGT_0192", null, "SKIN AND SUBCUTANEOUS TISSUE DISORDERS", null, 2, "No", "", 4, "NOT RECOVERED/NOT RESOLVED", "N", "N", "N", "N", "", "N", "N", "N", "27-AUG-2012", "07-AUG-2012", "", "Y"]
["CDISCPILOT01", "701", "1023", "Y", "E10", "ATRIOVENTRICULAR BLOCK SECOND DEGREE", "AV BLOCK SECOND DEGREE", null, "ATRIOVENTRICULAR BLOCK SECOND DEGREE", null, "HLT_0415", null, "HLGT_0086", null, "CARDIAC DISORDERS", null, 1, "No", "", 3, "NOT RECOVERED/NOT RESOLVED", "N", "N", "N", "N", "", "N", "N", "N", "27-AUG-2012", "26-AUG-2012", "", "Y"]
["CDISCPILOT01", "701", "1028", "Y", "E04", "APPLICATION SITE ERYTHEMA", "APPLICATION SITE ERYTHEMA", null, "APPLICATION SITE ERYTHEMA", null, "HLT_0617", null, "HLGT_0152", null, "GENERAL DISORDERS AND ADMINISTRATION SITE CONDITIONS", null, 1, "No", "", 3, "NOT RECOVERED/NOT RESOLVED", "N", "N", "N", "N", "", "N", "N", "N", "01-AUG-2013", "21-JUL-2013", "", "Y"]
["CDISCPILOT01", "701", "1028", "Y", "E05", "APPLICATION SITE PRURITUS", "APPLICATION SITE ITCHING", null, "APPLICATION SITE PRURITUS", null, "HLT_0317", null, "HLGT_0338", null, "GENERAL DISORDERS AND ADMINISTRATION SITE CONDITIONS", null, 1, "No", "", 4, "NOT RECOVERED/NOT RESOLVED", "N", "N", "N", "N", "", "N", "N", "N", "14-AUG-2013", "08-AUG-2013", "", "Y"]
["CDISCPILOT01", "701", "1033", "N", "", "", "", null, "", null, "", null, "", null, "", null, null, "", "", null, "", "", "", "", "", "", "", "", "", "", "", "", ""]
["CDISCPILOT01", "701", "1034", "Y", "E07", "FATIGUE", "FATIGUE", null, "FATIGUE", null, "HLT_0043", null, "HLGT_0181", null, "GENERAL DISORDERS AND ADMINISTRATION SITE CONDITIONS", null, 1, "No", "", 3, "NOT RECOVERED/NOT RESOLVED", "N", "N", "N", "N", "", "N", "N", "N", "18-NOV-2014", "02-NOV-2014", "", "Y"]
["CDISCPILOT01", "701", "1034", "Y", "E08", "APPLICATION SITE PRURITUS", "APPLICATION SITE ITCHING", null, "APPLICATION SITE PRURITUS", null, "HLT_0317", null, "HLGT_0338", null, "GENERAL DISORDERS AND ADMINISTRATION SITE CONDITIONS", null, 1, "No", "", 4, "NOT RECOVERED/NOT RESOLVED", "N", "N", "N", "N", "", "N", "N", "N", "25-SEP-2014", "27-AUG-2014", "", "Y"]
["CDISCPILOT01", "701", "1047", "Y", "E06", "HIATUS HERNIA", "HERNIA HIATAL", null, "HIATUS HERNIA", null, "HLT_0159", null, "HLGT_0109", null, "GASTROINTESTINAL DISORDERS", null, 2, "No", "", 1, "NOT RECOVERED/NOT RESOLVED", "N", "N", "N", "N", "", "N", "N", "N", "12-FEB-2013", "12-FEB-2013", "12-FEB-2013", "N"]
["CDISCPILOT01", "701", "1047", "Y", "E06", "HIATUS HERNIA", "HERNIA HIATAL", null, "HIATUS HERNIA", null, "HLT_0159", null, "HLGT_0109", null, "GASTROINTESTINAL DISORDERS", null, 2, "No", "", 1, "RECOVERED/RESOLVED", "N", "N", "N", "N", "", "N", "N", "N", "25-FEB-2013", "12-FEB-2013", "12-FEB-2013", "N"]
["CDISCPILOT01", "701", "1047", "Y", "E08", "UPPER RESPIRATORY TRACT INFECTION", "UPPER RESPIRATORY INFECTION", null, "UPPER RESPIRATORY TRACT INFECTION", null, "HLT_0520", null, "HLGT_0489", null, "INFECTIONS AND INFESTATIONS", null, 1, "No", "", 1, "NOT RECOVERED/NOT RESOLVED", "N", "N", "N", "N", "", "N", "N", "N", "10-MAR-2013", "06-MAR-2013", "", "Y"]
["CDISCPILOT01", "701", "1047", "Y", "E09", "BUNDLE BRANCH BLOCK LEFT", "LEFT BUNDLE BRANCH BLOCK", null, "BUNDLE BRANCH BLOCK LEFT", null, "HLT_0281", null, "HLGT_0721", null, "CARDIAC DISORDERS", null, 1, "No", "", 1, "NOT RECOVERED/NOT RESOLVED", "N", "N", "N", "N", "", "N", "N", "N", "10-MAR-2013", "10-MAR-2013", "", "Y"]
["CDISCPILOT01", "701", "1057", "N", "", "", "", null, "", null, "", null, "", null, "", null, null, "", "", null, "", "", "", "", "", "", "", "", "", "", "", "", ""]
["CDISCPILOT01", "701", "1097", "Y", "E04", "ERYTHEMA", "ERYTHEMA", null, "ERYTHEMA", null, "HLT_0284", null, "HLGT_0192", null, "SKIN AND SUBCUTANEOUS TISSUE DISORDERS", null, 1, "No", "", 3, "NOT RECOVERED/NOT RESOLVED", "N", "N", "N", "N", "", "N", "N", "N", "15-JAN-2014", "03-JAN-2014", "", "Y"]
["CDISCPILOT01", "701", "1097", "Y", "E05", "PRURITUS GENERALISED", "GENERALIZED PRURITUS", null, "PRURITUS GENERALISED", null, "HLT_0123", null, "HLGT_0689", null, "SKIN AND SUBCUTANEOUS TISSUE DISORDERS", null, 2, "No", "", 3, "RECOVERED/RESOLVED", "N", "N", "N", "N", "", "N", "N", "N", "26-FEB-2014", "20-FEB-2014", "20-FEB-2014", "N"]
["CDISCPILOT01", "701", "1097", "Y", "E06", "APPLICATION SITE PRURITUS", "APPLICATION SITE ITCHING", null, "APPLICATION SITE PRURITUS", null, "HLT_0317", null, "HLGT_0338", null, "GENERAL DISORDERS AND ADMINISTRATION SITE CONDITIONS", null, 1, "No", "", 3, "NOT RECOVERED/NOT RESOLVED", "N", "N", "N", "N", "", "N", "N", "N", "26-FEB-2014", "21-FEB-2014", "", "Y"]
["CDISCPILOT01", "701", "1097", "Y", "E06", "APPLICATION SITE PRURITUS", "APPLICATION SITE ITCHING", null, "APPLICATION SITE PRURITUS", null, "HLT_0317", null, "HLGT_0338", null, "GENERAL DISORDERS AND ADMINISTRATION SITE CONDITIONS", null, 2, "No", "", 3, "NOT RECOVERED/NOT RESOLVED", "N", "N", "N", "N", "", "N", "N", "N", "21-MAY-2014", "21-FEB-2014", "", "Y"]
["CDISCPILOT01", "701", "1097", "Y", "E07", "APPLICATION SITE VESICLES", "APPLICATION SITE BLISTER", null, "APPLICATION SITE VESICLES", null, "HLT_0180", null, "HLGT_0576", null, "GENERAL DISORDERS AND ADMINISTRATION SITE CONDITIONS", null, 1, "No", "", 4, "RECOVERED/RESOLVED", "N", "N", "N", "N", "", "N", "N", "N", "26-FEB-2014", "20-FEB-2014", "22-FEB-2014", "N"]
["CDISCPILOT01", "701", "1097", "Y", "E08", "PRURITUS GENERALISED", "GENERALIZED PRURITUS", null, "PRURITUS GENERALISED", null, "HLT_0123", null, "HLGT_0689", null, "SKIN AND SUBCUTANEOUS TISSUE DISORDERS", null, 2, "No", "", 3, "RECOVERED/RESOLVED", "N", "N", "N", "N", "", "N", "N", "N", "26-MAR-2014", "21-MAR-2014", "21-MAR-2014", "N"]
["CDISCPILOT01", "701", "1097", "Y", "E09", "PRURITUS GENERALISED", "GENERALIZED PRURITUS", null, "PRURITUS GENERALISED", null, "HLT_0123", null, "HLGT_0689", null, "SKIN AND SUBCUTANEOUS TISSUE DISORDERS", null, 2, "No", "", 3, "RECOVERED/RESOLVED", "N", "N", "N", "N", "", "N", "N", "N", "23-APR-2014", "19-APR-2014", "20-APR-2014", "N"]
["CDISCPILOT01", "701", "1097", "Y", "E10", "PHARYNGOLARYNGEAL PAIN", "SORE THROAT", null, "PHARYNGOLARYNGEAL PAIN", null, "HLT_0130", null, "HLGT_0402", null, "RESPIRATORY, THORACIC AND MEDIASTINAL DISORDERS", null, 1, "No", "", 1, "RECOVERED/RESOLVED", "N", "N", "N", "N", "", "N", "N", "N", "23-APR-2014", "19-APR-2014", "22-APR-2014", "N"]
["CDISCPILOT01", "701", "1097", "Y", "E11", "NASAL CONGESTION", "NASAL CONGESTION", null, "NASAL CONGESTION", null, "HLT_0118", null, "HLGT_0549", null, "RESPIRATORY, THORACIC AND MEDIASTINAL DISORDERS", null, 1, "No", "", 1, "RECOVERED/RESOLVED", "N", "N", "N", "N", "", "N", "N", "N", "23-APR-2014", "19-APR-2014", "22-APR-2014", "N"]
["CDISCPILOT01", "701", "1097", "Y", "E12", "PRURITUS GENERALISED", "GENERALIZED PRURITUS", null, "PRURITUS GENERALISED", null, "HLT_0123", null, "HLGT_0689", null, "SKIN AND SUBCUTANEOUS TISSUE DISORDERS", null, 2, "No", "", 3, "RECOVERED/RESOLVED", "N", "N", "N", "N", "", "N", "N", "N", "23-APR-2014", "31-MAR-2014", "31-MAR-2014", "N"]
["CDISCPILOT01", "701", "1111", "Y", "E06", "LOCALISED INFECTION", "LOCALIZED INFECTION", null, "LOCALISED INFECTION", null, "HLT_0435", null, "HLGT_0557", null, "INFECTIONS AND INFESTATIONS", null, 2, "No", "", 1, "NOT RECOVERED/NOT RESOLVED", "N", "N", "N", "N", "", "N", "N", "N", "17-SEP-2012", "08-JUL-2012", "", "Y"]
["CDISCPILOT01", "701", "1111", "Y", "E14", "ERYTHEMA", "ERYTHEMA", null, "ERYTHEMA", null, "HLT_0284", null, "HLGT_0192", null, "SKIN AND SUBCUTANEOUS TISSUE DISORDERS", null, 1, "No", "", 1, "NOT RECOVERED/NOT RESOLVED", "N", "N", "N", "N", "", "N", "N", "N", "05-SEP-2012", "02-SEP-2012", "07-SEP-2012", "N"]
["CDISCPILOT01", "701", "1111", "Y", "E14", "ERYTHEMA", "ERYTHEMA", null, "ERYTHEMA", null, "HLT_0284", null, "HLGT_0192", null, "SKIN AND SUBCUTANEOUS TISSUE DISORDERS", null, 1, "No", "", 1, "RECOVERED/RESOLVED", "N", "N", "N", "N", "", "N", "N", "N", "17-SEP-2012", "02-SEP-2012", "07-SEP-2012", "N"]
["CDISCPILOT01", "701", "1111", "Y", "E15", "PRURITUS", "ITCHING", null, "PRURITUS", null, "HLT_0778", null, "HLGT_0695", null, "SKIN AND SUBCUTANEOUS TISSUE DISORDERS", null, 1, "No", "", 1, "NOT RECOVERED/NOT RESOLVED", "N", "N", "N", "N", "", "N", "N", "N", "05-SEP-2012", "02-SEP-2012", "07-SEP-2012", "N"]
["CDISCPILOT01", "701", "1111", "Y", "E15", "PRURITUS", "ITCHING", null, "PRURITUS", null, "HLT_0778", null, "HLGT_0695", null, "SKIN AND SUBCUTANEOUS TISSUE DISORDERS", null, 1, "No", "", 1, "RECOVERED/RESOLVED", "N", "N", "N", "N", "", "N", "N", "N", "17-SEP-2012", "02-SEP-2012", "07-SEP-2012", "N"]
["CDISCPILOT01", "701", "1111", "Y", "E16", "ARTHRALGIA", "GENERALIZED JOINT PAIN", null, "ARTHRALGIA", null, "HLT_0375", null, "HLGT_0610", null, "MUSCULOSKELETAL AND CONNECTIVE TISSUE DISORDERS", null, 2, "No", "", 1, "NOT RECOVERED/NOT RESOLVED", "N", "N", "N", "N", "", "N", "N", "N", "17-SEP-2012", "13-SEP-2012", "", "Y"]
["CDISCPILOT01", "701", "1111", "Y", "E17", "CELLULITIS", "CELLULITIS OF LEG", null, "CELLULITIS", null, "HLT_0613", null, "HLGT_0066", null, "INFECTIONS AND INFESTATIONS", null, 2, "No", "", 1, "NOT RECOVERED/NOT RESOLVED", "N", "N", "N", "N", "", "N", "N", "N", "17-SEP-2012", "13-SEP-2012", "", "Y"]
["CDISCPILOT01", "701", "1111", "Y", "E18", "MICTURITION URGENCY", "URINARY URGENCY", null, "MICTURITION URGENCY", null, "HLT_0294", null, "HLGT_0483", null, "RENAL AND URINARY DISORDERS", null, 1, "No", "", 1, "NOT RECOVERED/NOT RESOLVED", "N", "N", "N", "N", "", "N", "N", "N", "17-SEP-2012", "07-SEP-2012", "", "Y"]
["CDISCPILOT01", "701", "1115", "Y", "E09", "APPLICATION SITE ERYTHEMA", "APPLICATION SITE REDNESS", null, "APPLICATION SITE ERYTHEMA", null, "HLT_0617", null, "HLGT_0152", null, "GENERAL DISORDERS AND ADMINISTRATION SITE CONDITIONS", null, 1, "No", "", 4, "NOT RECOVERED/NOT RESOLVED", "N", "N", "N", "N", "", "N", "N", "N", "13-DEC-2012", "02-DEC-2012", "", "Y"]
["CDISCPILOT01", "701", "1115", "Y", "E09", "APPLICATION SITE ERYTHEMA", "APPLICATION SITE REDNESS", null, "APPLICATION SITE ERYTHEMA", null, "HLT_0617", null, "HLGT_0152", null, "GENERAL DISORDERS AND ADMINISTRATION SITE CONDITIONS", null, 2, "No", "", 4, "NOT RECOVERED/NOT RESOLVED", "N", "N", "N", "N", "", "N", "N", "N", "23-JAN-2013", "02-DEC-2012", "", "Y"]
["CDISCPILOT01", "701", "1115", "Y", "E10", "APPLICATION SITE IRRITATION", "APPLICATION SITE BURNING", null, "APPLICATION SITE IRRITATION", null, "HLT_0061", null, "HLGT_0346", null, "GENERAL DISORDERS AND ADMINISTRATION SITE CONDITIONS", null, 1, "No", "", 3, "NOT RECOVERED/NOT RESOLVED", "N", "N", "N", "N", "", "N", "N", "N", "26-DEC-2012", "26-DEC-2012", "26-DEC-2012", "N"]
["CDISCPILOT01", "701", "1115", "Y", "E10", "APPLICATION SITE IRRITATION", "APPLICATION SITE BURNING", null, "APPLICATION SITE IRRITATION", null, "HLT_0061", null, "HLGT_0346", null, "GENERAL DISORDERS AND ADMINISTRATION SITE CONDITIONS", null, 1, "No", "", 3, "RECOVERED/RESOLVED", "N", "N", "N", "N", "", "N", "N", "N", "28-DEC-2012", "26-DEC-2012", "26-DEC-2012", "N"]
["CDISCPILOT01", "701", "1115", "Y", "E11", "APPLICATION SITE PRURITUS", "APPLICATION SITE ITCHING", null, "APPLICATION SITE PRURITUS", null, "HLT_0317", null, "HLGT_0338", null, "GENERAL DISORDERS AND ADMINISTRATION SITE CONDITIONS", null, 1, "No", "", 4, "NOT RECOVERED/NOT RESOLVED", "N", "N", "N", "N", "", "N", "N", "N", "13-DEC-2012", "02-DEC-2012", "", "Y"]
["CDISCPILOT01", "701", "1115", "Y", "E11", "APPLICATION SITE PRURITUS", "APPLICATION SITE ITCHING", null, "APPLICATION SITE PRURITUS", null, "HLT_0317", null, "HLGT_0338", null, "GENERAL DISORDERS AND ADMINISTRATION SITE CONDITIONS", null, 2, "No", "", 4, "NOT RECOVERED/NOT RESOLVED", "N", "N", "N", "N", "", "N", "N", "N", "23-JAN-2013", "02-DEC-2012", "", "Y"]
["CDISCPILOT01", "701", "1115", "Y", "E12", "APPLICATION SITE IRRITATION", "APPLICATION SITE BURNING", null, "APPLICATION SITE IRRITATION", null, "HLT_0061", null, "HLGT_0346", null, "GENERAL DISORDERS AND ADMINISTRATION SITE CONDITIONS", null, 2, "No", "", 4, "NOT RECOVERED/NOT RESOLVED", "N", "N", "N", "N", "", "N", "N", "N", "23-JAN-2013", "19-JAN-2013", "", "Y"]
["CDISCPILOT01", "701", "1115", "Y", "E13", "FATIGUE", "FATIGUE", null, "FATIGUE", null, "HLT_0043", null, "HLGT_0181", null, "GENERAL DISORDERS AND ADMINISTRATION SITE CONDITIONS", null, 2, "No", "", 2, "NOT RECOVERED/NOT RESOLVED", "N", "N", "N", "N", "", "N", "N", "N", "23-JAN-2013", "14-JAN-2013", "", "Y"]
["CDISCPILOT01", "701", "1115", "Y", "E14", "APPLICATION SITE DERMATITIS", "APPLICATION SITE RASH", null, "APPLICATION SITE DERMATITIS", null, "HLT_0343", null, "HLGT_0241", null, "GENERAL DISORDERS AND ADMINISTRATION SITE CONDITIONS", null, 2, "No", "", 4, "NOT RECOVERED/NOT RESOLVED", "N", "N", "N", "N", "", "N", "N", "N", "23-JAN-2013", "19-JAN-2013", "", "Y"]
["CDISCPILOT01", "701", "1118", "Y", "E06", "COUGH", "COUGH", null, "COUGH", null, "HLT_0701", null, "HLGT_0280", null, "RESPIRATORY, THORACIC AND MEDIASTINAL DISORDERS", null, 1, "No", "", 1, "NOT RECOVERED/NOT RESOLVED", "N", "N", "N", "N", "", "N", "N", "N", "10-MAR-2014", "2003", "", "Y"]
["CDISCPILOT01", "701", "1130", "Y", "E06", "URINARY TRACT INFECTION", "URINARY TRACT INFECTION", null, "URINARY TRACT INFECTION", null, "HLT_0161", null, "HLGT_0093", null, "INFECTIONS AND INFESTATIONS", null, 1, "No", "", 1, "NOT RECOVERED/NOT RESOLVED", "N", "N", "N", "N", "", "N", "N", "N", "15-MAR-2014", "09-MAR-2014", "16-MAR-2014", "N"]
["CDISCPILOT01", "701", "1130", "Y", "E06", "URINARY TRACT INFECTION", "URINARY TRACT INFECTION", null, "URINARY TRACT INFECTION", null, "HLT_0161", null, "HLGT_0093", null, "INFECTIONS AND INFESTATIONS", null, 1, "No", "", 1, "RECOVERED/RESOLVED", "N", "N", "N", "N", "", "N", "N", "N", "17-MAR-2014", "09-MAR-2014", "16-MAR-2014", "N"]
["CDISCPILOT01", "701", "1130", "Y", "E07", "PYREXIA", "FEVER", null, "PYREXIA", null, "HLT_0310", null, "HLGT_0652", null, "GENERAL DISORDERS AND ADMINISTRATION SITE CONDITIONS", null, 1, "No", "", 1, "RECOVERED/RESOLVED", "N", "N", "N", "N", "", "N", "N", "N", "15-MAR-2014", "09-MAR-2014", "09-MAR-2014", "N"]
["CDISCPILOT01", "701", "1130", "Y", "E08", "EYE SWELLING", "EYES SWOLLEN", null, "EYE SWELLING", null, "HLT_0008", null, "HLGT_0466", null, "EYE DISORDERS", null, 1, "No", "", 1, "RECOVERED/RESOLVED", "N", "N", "N", "N", "", "N", "N", "N", "16-MAY-2014", "09-MAY-2014", "09-MAY-2014", "N"]
["CDISCPILOT01", "701", "1130", "Y", "E09", "EYE ALLERGY", "EYE ALLERGY", null, "EYE ALLERGY", null, "HLT_0256", null, "HLGT_0071", null, "EYE DISORDERS", null, 1, "No", "", 1, "RECOVERED/RESOLVED", "N", "N", "N", "N", "", "N", "N", "N", "16-MAY-2014", "09-MAY-2014", "09-MAY-2014", "N"]
["CDISCPILOT01", "701", "1130", "Y", "E10", "EYE PRURITUS", "EYE ITCHING", null, "EYE PRURITUS", null, "HLT_0523", null, "HLGT_0240", null, "EYE DISORDERS", null, 1, "No", "", 2, "NOT RECOVERED/NOT RESOLVED", "N", "N", "N", "N", "", "N", "N", "N", "07-JUN-2014", "22-MAY-2014", "", "Y"]
["CDISCPILOT01", "701", "1130", "Y", "E11", "PRURITUS", "ITCHING BOTH HANDS", null, "PRURITUS", null, "HLT_0778", null, "HLGT_0695", null, "SKIN AND SUBCUTANEOUS TISSUE DISORDERS", null, 1, "No", "", 2, "NOT RECOVERED/NOT RESOLVED", "N", "N", "N", "N", "", "N", "N", "N", "07-JUN-2014", "22-MAY-2014", "", "Y"]
["CDISCPILOT01", "701", "1130", "Y", "E12", "NASAL CONGESTION", "NASAL CONGESTION", null, "NASAL CONGESTION", null, "HLT_0118", null, "HLGT_0549", null, "RESPIRATORY, THORACIC AND MEDIASTINAL DISORDERS", null, 1, "No", "", 2, "NOT RECOVERED/NOT RESOLVED", "N", "N", "N", "N", "", "N", "N", "N", "07-JUN-2014", "22-MAY-2014", "", "Y"]
["CDISCPILOT01", "701", "1133", "Y", "E04", "APPLICATION SITE ERYTHEMA", "APPLICATION SITE REDNESS", null, "APPLICATION SITE ERYTHEMA", null, "HLT_0617", null, "HLGT_0152", null, "GENERAL DISORDERS AND ADMINISTRATION SITE CONDITIONS", null, 1, "No", "", 4, "NOT RECOVERED/NOT RESOLVED", "N", "N", "N", "N", "", "N", "N", "N", "22-JAN-2013", "27-DEC-2012", "", "Y"]
["CDISCPILOT01", "701", "1133", "Y", "E04", "APPLICATION SITE ERYTHEMA", "APPLICATION SITE REDNESS", null, "APPLICATION SITE ERYTHEMA", null, "HLT_0617", null, "HLGT_0152", null, "GENERAL DISORDERS AND ADMINISTRATION SITE CONDITIONS", null, 2, "No", "", 4, "NOT RECOVERED/NOT RESOLVED", "N", "N", "N", "N", "", "N", "N", "N", "18-FEB-2013", "27-DEC-2012", "", "Y"]
["CDISCPILOT01", "701", "1133", "Y", "E05", "APPLICATION SITE PRURITUS", "APPLICATION SITE ITCHING", null, "APPLICATION SITE PRURITUS", null, "HLT_0317", null, "HLGT_0338", null, "GENERAL DISORDERS AND ADMINISTRATION SITE CONDITIONS", null, 1, "No", "", 4, "NOT RECOVERED/NOT RESOLVED", "N", "N", "N", "N", "", "N", "N", "N", "22-JAN-2013", "27-DEC-2012", "", "Y"]
["CDISCPILOT01", "701", "1133", "Y", "E05", "APPLICATION SITE PRURITUS", "APPLICATION SITE ITCHING", null, "APPLICATION SITE PRURITUS", null, "HLT_0317", null, "HLGT_0338", null, "GENERAL DISORDERS AND ADMINISTRATION SITE CONDITIONS", null, 2, "No", "", 4, "NOT RECOVERED/NOT RESOLVED", "N", "N", "N", "N", "", "N", "N", "N", "18-FEB-2013", "27-DEC-2012", "", "Y"]
["CDISCPILOT01", "701", "1145", "N", "", "", "", null, "", null, "", null, "", null, "", null, null, "", "", null, "", "", "", "", "", "", "", "", "", "", "", "", ""]
["CDISCPILOT01", "701", "1146", "Y", "E09", "RASH", "RASH", null, "RASH", null, "HLT_0762", null, "HLGT_0198", null, "SKIN AND SUBCUTANEOUS TISSUE DISORDERS", null, 1, "No", "", 1, "NOT RECOVERED/NOT RESOLVED", "N", "N", "N", "N", "", "N", "N", "N", "18-MAY-2013", "16-MAY-2013", "02-JUN-2013", "N"]
["CDISCPILOT01", "701", "1146", "Y", "E09", "RASH", "RASH", null, "RASH", null, "HLT_0762", null, "HLGT_0198", null, "SKIN AND SUBCUTANEOUS TISSUE DISORDERS", null, 1, "No", "", 1, "RECOVERED/RESOLVED", "N", "N", "N", "N", "", "N", "N", "N", "03-JUN-2013", "16-MAY-2013", "02-JUN-2013", "N"]
["CDISCPILOT01", "701", "1146", "Y", "E10", "APPLICATION SITE IRRITATION", "APPLICATION SITE IRRITATION", null, "APPLICATION SITE IRRITATION", null, "HLT_0061", null, "HLGT_0346", null, "GENERAL DISORDERS AND ADMINISTRATION SITE CONDITIONS", null, 1, "No", "", 4, "RECOVERED/RESOLVED", "N", "N", "N", "N", "", "N", "N", "N", "03-JUN-2013", "01-JUN-2013", "02-JUN-2013", "N"]
["CDISCPILOT01", "701", "1146", "Y", "E11", "FATIGUE", "FATIGUE", null, "FATIGUE", null, "HLT_0043", null, "HLGT_0181", null, "GENERAL DISORDERS AND ADMINISTRATION SITE CONDITIONS", null, 1, "No", "", 3, "NOT RECOVERED/NOT RESOLVED", "N", "N", "N", "N", "", "N", "N", "N", "03-JUN-2013", "03-JUN-2013", "", "Y"]
["CDISCPILOT01", "701", "1146", "Y", "E12", "APPLICATION SITE ERYTHEMA", "APPLICATION SITE ERYTHEMA", null, "APPLICATION SITE ERYTHEMA", null, "HLT_0617", null, "HLGT_0152", null, "GENERAL DISORDERS AND ADMINISTRATION SITE CONDITIONS", null, 1, "No", "", 4, "NOT RECOVERED/NOT RESOLVED", "N", "N", "N", "N", "", "N", "N", "N", "16-JUN-2013", "10-JUN-2013", "", "Y"]
["CDISCPILOT01", "701", "1146", "Y", "E12", "APPLICATION SITE ERYTHEMA", "APPLICATION SITE ERYTHEMA", null, "APPLICATION SITE ERYTHEMA", null, "HLT_0617", null, "HLGT_0152", null, "GENERAL DISORDERS AND ADMINISTRATION SITE CONDITIONS", null, 2, "No", "", 4, "NOT RECOVERED/NOT RESOLVED", "N", "N", "N", "N", "", "N", "N", "N", "30-JUN-2013", "10-JUN-2013", "", "Y"]
["CDISCPILOT01", "701", "1146", "Y", "E13", "APPLICATION SITE PRURITUS", "APPLICATION SITE ITCHING", null, "APPLICATION SITE PRURITUS", null, "HLT_0317", null, "HLGT_0338", null, "GENERAL DISORDERS AND ADMINISTRATION SITE CONDITIONS", null, 1, "No", "", 4, "NOT RECOVERED/NOT RESOLVED", "N", "N", "N", "N", "", "N", "N", "N", "16-JUN-2013", "10-JUN-2013", "", "Y"]
["CDISCPILOT01", "701", "1146", "Y", "E13", "APPLICATION SITE PRURITUS", "APPLICATION SITE ITCHING", null, "APPLICATION SITE PRURITUS", null, "HLT_0317", null, "HLGT_0338", null, "GENERAL DISORDERS AND ADMINISTRATION SITE CONDITIONS", null, 2, "No", "", 4, "NOT RECOVERED/NOT RESOLVED", "N", "N", "N", "N", "", "N", "N", "N", "30-JUN-2013", "10-JUN-2013", "", "Y"]
["CDISCPILOT01", "701", "1146", "Y", "E14", "APPLICATION SITE PAIN", "APPLICATION SITE PAIN", null, "APPLICATION SITE PAIN", null, "HLT_0342", null, "HLGT_0085", null, "GENERAL DISORDERS AND ADMINISTRATION SITE CONDITIONS", null, 2, "No", "", 4, "NOT RECOVERED/NOT RESOLVED", "N", "N", "N", "N", "", "N", "N", "N", "30-JUN-2013", "22-JUN-2013", "", "Y"]
["CDISCPILOT01", "701", "1146", "Y", "E15", "APPLICATION SITE VESICLES", "APPLICATION SITE VESICLES", null, "APPLICATION SITE VESICLES", null, "HLT_0180", null, "HLGT_0576", null, "GENERAL DISORDERS AND ADMINISTRATION SITE CONDITIONS", null, 2, "No", "", 4, "NOT RECOVERED/NOT RESOLVED", "N", "N", "N", "N", "", "N", "N", "N", "30-JUN-2013", "26-JUN-2013", "", "Y"]
["CDISCPILOT01", "701", "1146", "Y", "E16", "APPLICATION SITE IRRITATION", "APPLICATION SITE BURNING", null, "APPLICATION SITE IRRITATION", null, "HLT_0061", null, "HLGT_0346", null, "GENERAL DISORDERS AND ADMINISTRATION SITE CONDITIONS", null, 2, "No", "", 4, "NOT RECOVERED/NOT RESOLVED", "N", "N", "N", "N", "", "N", "N", "N", "30-JUN-2013", "26-JUN-2013", "", "Y"]
["CDISCPILOT01", "701", "1148", "Y", "E03", "DYSPEPSIA", "INDIGESTION", null, "DYSPEPSIA", null, "HLT_0244", null, "HLGT_0716", null, "GASTROINTESTINAL DISORDERS", null, 2, "No", "", 1, "NOT RECOVERED/NOT RESOLVED", "N", "N", "N", "N", "", "N", "N", "N", "08-FEB-2014", "FEB-2012", "", "Y"]
["CDISCPILOT01", "701", "1148", "Y", "E20", "APPLICATION SITE ERYTHEMA", "APPLICATION SITE REDNESS", null, "APPLICATION SITE ERYTHEMA", null, "HLT_0617", null, "HLGT_0152", null, "GENERAL DISORDERS AND ADMINISTRATION SITE CONDITIONS", null, 1, "No", "", 4, "NOT RECOVERED/NOT RESOLVED", "N", "N", "N", "N", "", "N", "N", "N", "05-SEP-2013", "25-AUG-2013", "", "Y"]
["CDISCPILOT01", "701", "1148", "Y", "E21", "APPLICATION SITE PRURITUS", "APPLICATION SITE ITCHING", null, "APPLICATION SITE PRURITUS", null, "HLT_0317", null, "HLGT_0338", null, "GENERAL DISORDERS AND ADMINISTRATION SITE CONDITIONS", null, 1, "No", "", 4, "NOT RECOVERED/NOT RESOLVED", "N", "N", "N", "N", "", "N", "N", "N", "05-SEP-2013", "25-AUG-2013", "", "Y"]
["CDISCPILOT01", "701", "1148", "Y", "E23", "LOWER RESPIRATORY TRACT INFECTION", "CHEST COLD", null, "LOWER RESPIRATORY TRACT INFECTION", null, "HLT_0052", null, "HLGT_0217", null, "INFECTIONS AND INFESTATIONS", null, 2, "No", "", 1, "NOT RECOVERED/NOT RESOLVED", "N", "N", "N", "N", "", "N", "N", "N", "18-OCT-2013", "12-OCT-2013", "10-NOV-2013", "N"]
["CDISCPILOT01", "701", "1148", "Y", "E23", "LOWER RESPIRATORY TRACT INFECTION", "CHEST COLD", null, "LOWER RESPIRATORY TRACT INFECTION", null, "HLT_0052", null, "HLGT_0217", null, "INFECTIONS AND INFESTATIONS", null, 2, "No", "", 1, "RECOVERED/RESOLVED", "N", "N", "N", "N", "", "N", "N", "N", "17-NOV-2013", "12-OCT-2013", "10-NOV-2013", "N"]
["CDISCPILOT01", "701", "1148", "Y", "E24", "FLANK PAIN", "FLANK PAIN", null, "FLANK PAIN", null, "HLT_0484", null, "HLGT_0543", null, "MUSCULOSKELETAL AND CONNECTIVE TISSUE DISORDERS", null, 2, "No", "", 1, "RECOVERED/RESOLVED", "N", "N", "N", "N", "", "N", "N", "N", "10-JAN-2014", "15-DEC-2013", "17-DEC-2013", "N"]
["CDISCPILOT01", "701", "1148", "Y", "E25", "CALCULUS URETHRAL", "URETHRAL CALCULUS", null, "CALCULUS URETHRAL", null, "HLT_0550", null, "HLGT_0414", null, "RENAL AND URINARY DISORDERS", null, 2, "No", "", 1, "RECOVERED/RESOLVED", "N", "N", "N", "N", "", "N", "N", "N", "10-JAN-2014", "17-DEC-2013", "17-DEC-2013", "N"]
["CDISCPILOT01", "701", "1148", "Y", "E26", "DEPRESSED MOOD", "DEPRESSED MOOD", null, "DEPRESSED MOOD", null, "HLT_0784", null, "HLGT_0122", null, "PSYCHIATRIC DISORDERS", null, 2, "No", "", 1, "NOT RECOVERED/NOT RESOLVED", "N", "N", "N", "N", "", "N", "N", "N", "08-FEB-2014", "29-JUL-2013", "", "Y"]
["CDISCPILOT01", "701", "1148", "Y", "E27", "ACTINIC KERATOSIS", "ACTINIC KERATOSIS", null, "ACTINIC KERATOSIS", null, "HLT_0609", null, "HLGT_0490", null, "SKIN AND SUBCUTANEOUS TISSUE DISORDERS", null, 1, "No", "", 1, "NOT RECOVERED/NOT RESOLVED", "N", "N", "N", "N", "", "N", "N", "N", "20-FEB-2014", "12-FEB-2014", "", "Y"]
["CDISCPILOT01", "701", "1148", "Y", "E28", "EPISTAXIS", "NOSE BLEED", null, "EPISTAXIS", null, "HLT_0386", null, "HLGT_0577", null, "RESPIRATORY, THORACIC AND MEDIASTINAL DISORDERS", null, 1, "No", "", 1, "RECOVERED/RESOLVED", "N", "N", "N", "N", "", "N", "N", "N", "10-JAN-2014", "03-JAN-2014", "03-JAN-2014", "N"]
["CDISCPILOT01", "701", "1153", "Y", "E06", "INCREASED APPETITE", "INCREASED APPETITE", null, "INCREASED APPETITE", null, "HLT_0566", null, "HLGT_0769", null, "METABOLISM AND NUTRITION DISORDERS", null, 1, "No", "", 3, "NOT RECOVERED/NOT RESOLVED", "N", "N", "N", "N", "", "N", "N", "N", "19-OCT-2013", "13-OCT-2013", "06-NOV-2013", "N"]
["CDISCPILOT01", "701", "1153", "Y", "E06", "INCREASED APPETITE", "INCREASED APPETITE", null, "INCREASED APPETITE", null, "HLT_0566", null, "HLGT_0769", null, "METABOLISM AND NUTRITION DISORDERS", null, 1, "No", "", 3, "RECOVERED/RESOLVED", "N", "N", "N", "N", "", "N", "N", "N", "18-NOV-2013", "13-OCT-2013", "06-NOV-2013", "N"]
["CDISCPILOT01", "701", "1162", "N", "", "", "", null, "", null, "", null, "", null, "", null, null, "", "", null, "", "", "", "", "", "", "", "", "", "", "", "", ""]
["CDISCPILOT01", "701", "1176", "N", "", "", "", null, "", null, "", null, "", null, "", null, null, "", "", null, "", "", "", "", "", "", "", "", "", "", "", "", ""]
["CDISCPILOT01", "701", "1180", "Y", "E01", "VOMITING", "VOMITING", null, "VOMITING", null, "HLT_0016", null, "HLGT_0350", null, "GASTROINTESTINAL DISORDERS", null, 1, "No", "", 1, "NOT RECOVERED/NOT RESOLVED", "N", "N", "N", "N", "", "N", "N", "N", "12-FEB-2013", "12-FEB-2013", "12-FEB-2013", "N"]
["CDISCPILOT01", "701", "1180", "Y", "E01", "VOMITING", "VOMITING", null, "VOMITING", null, "HLT_0016", null, "HLGT_0350", null, "GASTROINTESTINAL DISORDERS", null, 1, "No", "", 1, "RECOVERED/RESOLVED", "N", "N", "N", "N", "", "N", "N", "N", "25-FEB-2013", "12-FEB-2013", "12-FEB-2013", "N"]
["CDISCPILOT01", "701", "1180", "Y", "E02", "MICTURITION URGENCY", "URINARY URGENCY", null, "MICTURITION URGENCY", null, "HLT_0294", null, "HLGT_0483", null, "RENAL AND URINARY DISORDERS", null, 1, "No", "", 3, "NOT RECOVERED/NOT RESOLVED", "N", "N", "N", "N", "", "N", "N", "N", "25-FEB-2013", "15-FEB-2013", "19-MAR-2013", "N"]
["CDISCPILOT01", "701", "1180", "Y", "E02", "MICTURITION URGENCY", "URINARY URGENCY", null, "MICTURITION URGENCY", null, "HLT_0294", null, "HLGT_0483", null, "RENAL AND URINARY DISORDERS", null, 1, "No", "", 3, "RECOVERED/RESOLVED", "N", "N", "N", "N", "", "N", "N", "N", "23-MAR-2013", "15-FEB-2013", "19-MAR-2013", "N"]
["CDISCPILOT01", "701", "1180", "Y", "E03", "NASOPHARYNGITIS", "COLD", null, "NASOPHARYNGITIS", null, "HLT_0036", null, "HLGT_0709", null, "INFECTIONS AND INFESTATIONS", null, 1, "No", "", 1, "RECOVERED/RESOLVED", "N", "N", "N", "N", "", "N", "N", "N", "11-MAR-2013", "06-MAR-2013", "07-MAR-2013", "N"]
["CDISCPILOT01", "701", "1180", "Y", "E04", "HEADACHE", "HEADACHE", null, "HEADACHE", null, "HLT_0064", null, "HLGT_0344", null, "NERVOUS SYSTEM DISORDERS", null, 2, "No", "", 1, "NOT RECOVERED/NOT RESOLVED", "N", "N", "N", "N", "", "N", "N", "N", "11-MAR-2013", "2002", "", "Y"]
["CDISCPILOT01", "701", "1180", "Y", "E05", "APPLICATION SITE VESICLES", "APPLICATION SITE BLISTER", null, "APPLICATION SITE VESICLES", null, "HLT_0180", null, "HLGT_0576", null, "GENERAL DISORDERS AND ADMINISTRATION SITE CONDITIONS", null, 2, "No", "", 3, "NOT RECOVERED/NOT RESOLVED", "N", "N", "N", "N", "", "N", "N", "N", "23-MAR-2013", "19-MAR-2013", "", "Y"]
["CDISCPILOT01", "701", "1180", "Y", "E06", "APPLICATION SITE PRURITUS", "APPLICATION SITE ITCHING", null, "APPLICATION SITE PRURITUS", null, "HLT_0317", null, "HLGT_0338", null, "GENERAL DISORDERS AND ADMINISTRATION SITE CONDITIONS", null, 2, "No", "", 3, "NOT RECOVERED/NOT RESOLVED", "N", "N", "N", "N", "", "N", "N", "N", "23-MAR-2013", "19-MAR-2013", "", "Y"]
["CDISCPILOT01", "701", "1180", "Y", "E07", "APPLICATION SITE ERYTHEMA", "APPLICATION SITE ERYTHEMA", null, "APPLICATION SITE ERYTHEMA", null, "HLT_0617", null, "HLGT_0152", null, "GENERAL DISORDERS AND ADMINISTRATION SITE CONDITIONS", null, 2, "No", "", 3, "NOT RECOVERED/NOT RESOLVED", "N", "N", "N", "N", "", "N", "N", "N", "23-MAR-2013", "19-MAR-2013", "", "Y"]
["CDISCPILOT01", "701", "1181", "Y", "E16", "AGITATION", "AGITATION", null, "AGITATION", null, "HLT_0140", null, "HLGT_0170", null, "PSYCHIATRIC DISORDERS", null, 2, "No", "", 1, "RECOVERED/RESOLVED", "N", "N", "N", "N", "", "N", "N", "N", "12-DEC-2013", "09-DEC-2013", "09-DEC-2013", "N"]
["CDISCPILOT01", "701", "1188", "Y", "E04", "ERYTHEMA", "ERYTHEMA", null, "ERYTHEMA", null, "HLT_0284", null, "HLGT_0192", null, "SKIN AND SUBCUTANEOUS TISSUE DISORDERS", null, 1, "No", "", 4, "NOT RECOVERED/NOT RESOLVED", "N", "N", "N", "N", "", "N", "N", "N", "02-MAR-2013", "16-FEB-2013", "", "Y"]
["CDISCPILOT01", "701", "1188", "Y", "E04", "ERYTHEMA", "ERYTHEMA", null, "ERYTHEMA", null, "HLT_0284", null, "HLGT_0192", null, "SKIN AND SUBCUTANEOUS TISSUE DISORDERS", null, 2, "No", "", 4, "NOT RECOVERED/NOT RESOLVED", "N", "N", "N", "N", "", "N", "N", "N", "16-MAR-2013", "16-FEB-2013", "", "Y"]
["CDISCPILOT01", "701", "1188", "Y", "E05", "PRURITUS", "ITCHING", null, "PRURITUS", null, "HLT_0778", null, "HLGT_0695", null, "SKIN AND SUBCUTANEOUS TISSUE DISORDERS", null, 1, "No", "", 4, "NOT RECOVERED/NOT RESOLVED", "N", "N", "N", "N", "", "N", "N", "N", "02-MAR-2013", "16-FEB-2013", "", "Y"]
["CDISCPILOT01", "701", "1188", "Y", "E05", "PRURITUS", "ITCHING", null, "PRURITUS", null, "HLT_0778", null, "HLGT_0695", null, "SKIN AND SUBCUTANEOUS TISSUE DISORDERS", null, 2, "No", "", 4, "NOT RECOVERED/NOT RESOLVED", "N", "N", "N", "N", "", "N", "N", "N", "16-MAR-2013", "16-FEB-2013", "", "Y"]
["CDISCPILOT01", "701", "1188", "Y", "E06", "URTICARIA", "WELTS", null, "URTICARIA", null, "HLT_0420", null, "HLGT_0705", null, "SKIN AND SUBCUTANEOUS TISSUE DISORDERS", null, 1, "No", "", 4, "NOT RECOVERED/NOT RESOLVED", "N", "N", "N", "N", "", "N", "N", "N", "16-MAR-2013", "04-MAR-2013", "", "Y"]
["CDISCPILOT01", "701", "1188", "Y", "E06", "URTICARIA", "WELTS", null, "URTICARIA", null, "HLT_0420", null, "HLGT_0705", null, "SKIN AND SUBCUTANEOUS TISSUE DISORDERS", null, 2, "No", "", 4, "NOT RECOVERED/NOT RESOLVED", "N", "N", "N", "N", "", "N", "N", "N", "25-MAR-2013", "04-MAR-2013", "", "Y"]
["CDISCPILOT01", "701", "1188", "Y", "E09", "APPLICATION SITE URTICARIA", "APPLICATION SITE URTICARIA", null, "APPLICATION SITE URTICARIA", null, "HLT_0196", null, "HLGT_0233", null, "GENERAL DISORDERS AND ADMINISTRATION SITE CONDITIONS", null, 1, "No", "", 4, "NOT RECOVERED/NOT RESOLVED", "N", "N", "N", "N", "", "N", "N", "N", "25-MAR-2013", "21-MAR-2013", "", "Y"]
["CDISCPILOT01", "701", "1188", "Y", "E10", "URTICARIA", "WELTS", null, "URTICARIA", null, "HLT_0420", null, "HLGT_0705", null, "SKIN AND SUBCUTANEOUS TISSUE DISORDERS", null, 1, "No", "", 4, "NOT RECOVERED/NOT RESOLVED", "N", "N", "N", "N", "", "N", "N", "N", "25-MAR-2013", "21-MAR-2013", "", "Y"]
["CDISCPILOT01", "701", "1192", "Y", "E01", "COUGH", "COUGH", null, "COUGH", null, "HLT_0701", null, "HLGT_0280", null, "RESPIRATORY, THORACIC AND MEDIASTINAL DISORDERS", null, 2, "No", "", 1, "NOT RECOVERED/NOT RESOLVED", "N", "N", "N", "N", "", "N", "N", "N", "23-SEP-2012", "JUN-2010", "", "Y"]
["CDISCPILOT01", "701", "1192", "Y", "E01", "COUGH", "COUGH", null, "COUGH", null, "HLT_0701", null, "HLGT_0280", null, "RESPIRATORY, THORACIC AND MEDIASTINAL DISORDERS", null, 1, "No", "", 1, "NOT RECOVERED/NOT RESOLVED", "N", "N", "N", "N", "", "N", "N", "N", "14-OCT-2012", "JUN-2010", "", "Y"]
["CDISCPILOT01", "701", "1192", "Y", "E06", "NASAL MUCOSA BIOPSY", "NASAL MUCOSA BIOPSY", null, "NASAL MUCOSA BIOPSY", null, "HLT_0680", null, "HLGT_0396", null, "INVESTIGATIONS", null, 1, "No", "", 1, "RECOVERED/RESOLVED", "N", "N", "N", "N", "", "N", "N", "N", "07-AUG-2012", "03-AUG-2012", "03-AUG-2012", "N"]
["CDISCPILOT01", "701", "1192", "Y", "E08", "SECRETION DISCHARGE", "SECRETION DISCHARGE", null, "SECRETION DISCHARGE", null, "HLT_0683", null, "HLGT_0575", null, "GENERAL DISORDERS AND ADMINISTRATION SITE CONDITIONS", null, 1, "No", "", 1, "NOT RECOVERED/NOT RESOLVED", "N", "N", "N", "N", "", "N", "N", "N", "07-AUG-2012", "07-AUG-2012", "14-SEP-2012", "N"]
["CDISCPILOT01", "701", "1192", "Y", "E08", "SECRETION DISCHARGE", "SECRETION DISCHARGE", null, "SECRETION DISCHARGE", null, "HLT_0683", null, "HLGT_0575", null, "GENERAL DISORDERS AND ADMINISTRATION SITE CONDITIONS", null, 1, "No", "", 1, "RECOVERED/RESOLVED", "N", "N", "N", "N", "", "N", "N", "N", "23-SEP-2012", "07-AUG-2012", "14-SEP-2012", "N"]
["CDISCPILOT01", "701", "1192", "Y", "E09", "ERYTHEMA", "ERYTHEMA FACIAL", null, "ERYTHEMA", null, "HLT_0284", null, "HLGT_0192", null, "SKIN AND SUBCUTANEOUS TISSUE DISORDERS", null, 1, "No", "", 1, "NOT RECOVERED/NOT RESOLVED", "N", "N", "N", "N", "", "N", "N", "N", "07-AUG-2012", "07-AUG-2012", "14-SEP-2012", "N"]
["CDISCPILOT01", "701", "1192", "Y", "E09", "ERYTHEMA", "ERYTHEMA FACIAL", null, "ERYTHEMA", null, "HLT_0284", null, "HLGT_0192", null, "SKIN AND SUBCUTANEOUS TISSUE DISORDERS", null, 1, "No", "", 1, "RECOVERED/RESOLVED", "N", "N", "N", "N", "", "N", "N", "N", "23-SEP-2012", "07-AUG-2012", "14-SEP-2012", "N"]
["CDISCPILOT01", "701", "1192", "Y", "E10", "PNEUMONIA", "PNEUMONIA", null, "PNEUMONIA", null, "HLT_0251", null, "HLGT_0671", null, "INFECTIONS AND INFESTATIONS", null, 2, "No", "", 1, "NOT RECOVERED/NOT RESOLVED", "N", "N", "N", "N", "", "Y", "N", "N", "23-SEP-2012", "07-SEP-2012", "06-OCT-2012", "N"]
["CDISCPILOT01", "701", "1192", "Y", "E10", "PNEUMONIA", "PNEUMONIA", null, "PNEUMONIA", null, "HLT_0251", null, "HLGT_0671", null, "INFECTIONS AND INFESTATIONS", null, 2, "No", "", 1, "RECOVERED/RESOLVED", "N", "N", "N", "N", "", "Y", "N", "N", "14-OCT-2012", "07-SEP-2012", "06-OCT-2012", "N"]
["CDISCPILOT01", "701", "1192", "Y", "E11", "MUSCULAR WEAKNESS", "MUSCULAR WEAKNESS", null, "MUSCULAR WEAKNESS", null, "HLT_0444", null, "HLGT_0211", null, "MUSCULOSKELETAL AND CONNECTIVE TISSUE DISORDERS", null, 2, "No", "", 1, "NOT RECOVERED/NOT RESOLVED", "N", "N", "N", "N", "", "N", "N", "N", "23-SEP-2012", "07-SEP-2012", "30-SEP-2012", "N"]
["CDISCPILOT01", "701", "1192", "Y", "E11", "MUSCULAR WEAKNESS", "MUSCULAR WEAKNESS", null, "MUSCULAR WEAKNESS", null, "HLT_0444", null, "HLGT_0211", null, "MUSCULOSKELETAL AND CONNECTIVE TISSUE DISORDERS", null, 2, "No", "", 1, "RECOVERED/RESOLVED", "N", "N", "N", "N", "", "N", "N", "N", "14-OCT-2012", "07-SEP-2012", "30-SEP-2012", "N"]
["CDISCPILOT01", "701", "1192", "Y", "E12", "APPLICATION SITE IRRITATION", "APPLICATION SITE BURNING", null, "APPLICATION SITE IRRITATION", null, "HLT_0061", null, "HLGT_0346", null, "GENERAL DISORDERS AND ADMINISTRATION SITE CONDITIONS", null, 1, "No", "", 4, "NOT RECOVERED/NOT RESOLVED", "N", "N", "N", "N", "", "N", "N", "N", "13-DEC-2012", "05-DEC-2012", "16-DEC-2012", "N"]
["CDISCPILOT01", "701", "1192", "Y", "E12", "APPLICATION SITE IRRITATION", "APPLICATION SITE BURNING", null, "APPLICATION SITE IRRITATION", null, "HLT_0061", null, "HLGT_0346", null, "GENERAL DISORDERS AND ADMINISTRATION SITE CONDITIONS", null, 1, "No", "", 4, "RECOVERED/RESOLVED", "N", "N", "N", "N", "", "N", "N", "N", "11-JAN-2013", "05-DEC-2012", "16-DEC-2012", "N"]
["CDISCPILOT01", "701", "1192", "Y", "E13", "APPLICATION SITE ERYTHEMA", "APPLICATION SITE REDNESS", null, "APPLICATION SITE ERYTHEMA", null, "HLT_0617", null, "HLGT_0152", null, "GENERAL DISORDERS AND ADMINISTRATION SITE CONDITIONS", null, 1, "No", "", 4, "NOT RECOVERED/NOT RESOLVED", "N", "N", "N", "N", "", "N", "N", "N", "13-DEC-2012", "05-DEC-2012", "", "Y"]
["CDISCPILOT01", "701", "1192", "Y", "E14", "APPLICATION SITE PRURITUS", "APPLICATION SITE ITCHING", null, "APPLICATION SITE PRURITUS", null, "HLT_0317", null, "HLGT_0338", null, "GENERAL DISORDERS AND ADMINISTRATION SITE CONDITIONS", null, 1, "No", "", 4, "NOT RECOVERED/NOT RESOLVED", "N", "N", "N", "N", "", "N", "N", "N", "13-DEC-2012", "05-DEC-2012", "", "Y"]
["CDISCPILOT01", "701", "1203", "Y", "E05", "EYE LASER SURGERY", "EYE LASER SURGERY", null, "EYE LASER SURGERY", null, "HLT_0355", null, "HLGT_0189", null, "SURGICAL AND MEDICAL PROCEDURES", null, 1, "No", "", 1, "RECOVERED/RESOLVED", "N", "N", "N", "N", "", "N", "N", "N", "30-MAR-2013", "21-MAR-2013", "21-MAR-2013", "N"]
["CDISCPILOT01", "701", "1211", "Y", "E03", "JOINT DISLOCATION", "SHOULDER DISLOCATION", null, "JOINT DISLOCATION", null, "HLT_0035", null, "HLGT_0227", null, "INJURY, POISONING AND PROCEDURAL COMPLICATIONS", null, 2, "No", "", 1, "RECOVERED/RESOLVED", "N", "N", "N", "N", "14-JAN-2013", "N", "N", "N", "28-NOV-2012", "21-NOV-2012", "21-NOV-2012", "N"]
["CDISCPILOT01", "701", "1211", "Y", "E04", "SHOULDER PAIN", "SHOULDER PAIN", null, "SHOULDER PAIN", null, "HLT_0527", null, "HLGT_0288", null, "MUSCULOSKELETAL AND CONNECTIVE TISSUE DISORDERS", null, 1, "No", "", 1, "NOT RECOVERED/NOT RESOLVED", "N", "N", "N", "N", "14-JAN-2013", "N", "N", "N", "28-NOV-2012", "21-NOV-2012", "", "Y"]
["CDISCPILOT01", "701", "1211", "Y", "E05", "APPLICATION SITE ERYTHEMA", "APPLICATION SITE REDNESS", null, "APPLICATION SITE ERYTHEMA", null, "HLT_0617", null, "HLGT_0152", null, "GENERAL DISORDERS AND ADMINISTRATION SITE CONDITIONS", null, 1, "No", "", 3, "NOT RECOVERED/NOT RESOLVED", "N", "N", "N", "N", "14-JAN-2013", "N", "N", "N", "11-DEC-2012", "29-NOV-2012", "", "Y"]
["CDISCPILOT01", "701", "1211", "Y", "E06", "SKIN LACERATION", "LACERATION OF FACE", null, "SKIN LACERATION", null, "HLT_0075", null, "HLGT_0118", null, "INJURY, POISONING AND PROCEDURAL COMPLICATIONS", null, 1, "No", "", 1, "NOT RECOVERED/NOT RESOLVED", "N", "N", "N", "N", "14-JAN-2013", "N", "N", "N", "11-DEC-2012", "09-DEC-2012", "", "Y"]
["CDISCPILOT01", "701", "1211", "Y", "E08", "APPLICATION SITE PRURITUS", "APPLICATION SITE ITCHING", null, "APPLICATION SITE PRURITUS", null, "HLT_0317", null, "HLGT_0338", null, "GENERAL DISORDERS AND ADMINISTRATION SITE CONDITIONS", null, 1, "No", "", 3, "NOT RECOVERED/NOT RESOLVED", "N", "N", "N", "N", "14-JAN-2013", "N", "N", "N", "28-NOV-2012", "16-NOV-2012", "", "Y"]
["CDISCPILOT01", "701", "1211", "Y", "E09", "INCONTINENCE", "INCONTINENCE", null, "INCONTINENCE", null, "HLT_0560", null, "HLGT_0503", null, "RENAL AND URINARY DISORDERS", null, 1, "No", "", 1, "NOT RECOVERED/NOT RESOLVED", "N", "N", "N", "N", "14-JAN-2013", "N", "N", "N", "28-NOV-2012", "22-NOV-2012", "", "Y"]
["CDISCPILOT01", "701", "1211", "Y", "E11", "SUDDEN DEATH", "SUDDEN DEATH", null, "SUDDEN DEATH", null, "HLT_0142", null, "HLGT_0272", null, "GENERAL DISORDERS AND ADMINISTRATION SITE CONDITIONS", null, 3, "No", "", 1, "FATAL", "N", "N", "N", "Y", "14-JAN-2013", "N", "Y", "N", "14-JAN-2013", "14-JAN-2013", "14-JAN-2013", "N"]
["CDISCPILOT01", "701", "1211", "Y", "E12", "CONFUSIONAL STATE", "CONFUSION", null, "CONFUSIONAL STATE", null, "HLT_0642", null, "HLGT_0329", null, "PSYCHIATRIC DISORDERS", null, 2, "No", "", 1, "NOT RECOVERED/NOT RESOLVED", "N", "N", "N", "N", "14-JAN-2013", "N", "N", "N", "14-JAN-2013", "11-JAN-2013", "", "Y"]
["CDISCPILOT01", "701", "1211", "Y", "E13", "DYSPNOEA", "SHORTNESS OF BREATH", null, "DYSPNOEA", null, "HLT_0296", null, "HLGT_0255", null, "RESPIRATORY, THORACIC AND MEDIASTINAL DISORDERS", null, 2, "No", "", 1, "NOT RECOVERED/NOT RESOLVED", "N", "N", "N", "N", "14-JAN-2013", "N", "N", "N", "14-JAN-2013", "11-JAN-2013", "", "Y"]
["CDISCPILOT01", "701", "1234", "N", "", "", "", null, "", null, "", null, "", null, "", null, null, "", "", null, "", "", "", "", "", "", "", "", "", "", "", "", ""]
["CDISCPILOT01", "701", "1239", "Y", "E11", "ERYTHEMA", "ERYTHEMA", null, "ERYTHEMA", null, "HLT_0284", null, "HLGT_0192", null, "SKIN AND SUBCUTANEOUS TISSUE DISORDERS", null, 1, "No", "", 3, "NOT RECOVERED/NOT RESOLVED", "N", "N", "N", "N", "", "N", "N", "N", "25-JAN-2014", "12-JAN-2014", "", "Y"]
["CDISCPILOT01", "701", "1239", "Y", "E11", "ERYTHEMA", "ERYTHEMA", null, "ERYTHEMA", null, "HLT_0284", null, "HLGT_0192", null, "SKIN AND SUBCUTANEOUS TISSUE DISORDERS", null, 2, "No", "", 3, "NOT RECOVERED/NOT RESOLVED", "N", "N", "N", "N", "", "N", "N", "N", "19-FEB-2014", "12-JAN-2014", "", "Y"]
["CDISCPILOT01", "701", "1239", "Y", "E12", "PRURITUS", "ITCHING", null, "PRURITUS", null, "HLT_0778", null, "HLGT_0695", null, "SKIN AND SUBCUTANEOUS TISSUE DISORDERS", null, 1, "No", "", 3, "NOT RECOVERED/NOT RESOLVED", "N", "N", "N", "N", "", "N", "N", "N", "25-JAN-2014", "13-JAN-2014", "", "Y"]
["CDISCPILOT01", "701", "1239", "Y", "E13", "APPLICATION SITE IRRITATION", "APPLICATION SITE IRRITATION", null, "APPLICATION SITE IRRITATION", null, "HLT_0061", null, "HLGT_0346", null, "GENERAL DISORDERS AND ADMINISTRATION SITE CONDITIONS", null, 1, "No", "", 4, "NOT RECOVERED/NOT RESOLVED", "N", "N", "N", "N", "", "N", "N", "N", "25-JAN-2014", "20-JAN-2014", "08-FEB-2014", "N"]
["CDISCPILOT01", "701", "1239", "Y", "E13", "APPLICATION SITE IRRITATION", "APPLICATION SITE IRRITATION", null, "APPLICATION SITE IRRITATION", null, "HLT_0061", null, "HLGT_0346", null, "GENERAL DISORDERS AND ADMINISTRATION SITE CONDITIONS", null, 1, "No", "", 4, "RECOVERED/RESOLVED", "N", "N", "N", "N", "", "N", "N", "N", "10-FEB-2014", "20-JAN-2014", "08-FEB-2014", "N"]
["CDISCPILOT01", "701", "1239", "Y", "E14", "UPPER RESPIRATORY TRACT INFECTION", "UPPER RESPIRATORY INFECTION", null, "UPPER RESPIRATORY TRACT INFECTION", null, "HLT_0520", null, "HLGT_0489", null, "INFECTIONS AND INFESTATIONS", null, 1, "No", "", 1, "NOT RECOVERED/NOT RESOLVED", "N", "N", "N", "N", "", "N", "N", "N", "06-MAR-2014", "20-FEB-2014", "12-MAR-2014", "N"]
["CDISCPILOT01", "701", "1239", "Y", "E14", "UPPER RESPIRATORY TRACT INFECTION", "UPPER RESPIRATORY INFECTION", null, "UPPER RESPIRATORY TRACT INFECTION", null, "HLT_0520", null, "HLGT_0489", null, "INFECTIONS AND INFESTATIONS", null, 1, "No", "", 1, "RECOVERED/RESOLVED", "N", "N", "N", "N", "", "N", "N", "N", "02-APR-2014", "20-FEB-2014", "12-MAR-2014", "N"]
["CDISCPILOT01", "701", "1239", "Y", "E15", "SKIN ODOUR ABNORMAL", "SKIN ODOR ABNORMAL", null, "SKIN ODOUR ABNORMAL", null, "HLT_0510", null, "HLGT_0184", null, "SKIN AND SUBCUTANEOUS TISSUE DISORDERS", null, 1, "No", "", 2, "NOT RECOVERED/NOT RESOLVED", "N", "N", "N", "N", "", "N", "N", "N", "25-JAN-2014", "12-JAN-2014", "", "Y"]
["CDISCPILOT01", "701", "1239", "Y", "E16", "FATIGUE", "FATIGUE", null, "FATIGUE", null, "HLT_0043", null, "HLGT_0181", null, "GENERAL DISORDERS AND ADMINISTRATION SITE CONDITIONS", null, 1, "No", "", 2, "NOT RECOVERED/NOT RESOLVED", "N", "N", "N", "N", "", "N", "N", "N", "02-APR-2014", "MAR-2014", "", "Y"]
["CDISCPILOT01", "701", "1239", "Y", "E17", "HORDEOLUM", "STYE", null, "HORDEOLUM", null, "HLT_0604", null, "HLGT_0290", null, "INFECTIONS AND INFESTATIONS", null, 1, "No", "", 1, "NOT RECOVERED/NOT RESOLVED", "N", "N", "N", "N", "", "N", "N", "N", "02-MAY-2014", "APR-2014", "", "Y"]
["CDISCPILOT01", "701", "1240", "N", "", "", "", null, "", null, "", null, "", null, "", null, null, "", "", null, "", "", "", "", "", "", "", "", "", "", "", "", ""]
["CDISCPILOT01", "701", "1275", "Y", "E04", "NAUSEA", "NAUSEA", null, "NAUSEA", null, "HLT_0742", null, "HLGT_0326", null, "GASTROINTESTINAL DISORDERS", null, 1, "No", "", 3, "NOT RECOVERED/NOT RESOLVED", "N", "N", "N", "N", "", "N", "N", "N", "22-FEB-2014", "13-FEB-2014", "03-JUN-2014", "N"]
["CDISCPILOT01", "701", "1275", "Y", "E04", "NAUSEA", "NAUSEA", null, "NAUSEA", null, "HLT_0742", null, "HLGT_0326", null, "GASTROINTESTINAL DISORDERS", null, 1, "No", "", 3, "RECOVERED/RESOLVED", "N", "N", "N", "N", "", "N", "N", "N", "14-JUN-2014", "13-FEB-2014", "03-JUN-2014", "N"]
["CDISCPILOT01", "701", "1275", "Y", "E05", "VOMITING", "VOMITING", null, "VOMITING", null, "HLT_0016", null, "HLGT_0350", null, "GASTROINTESTINAL DISORDERS", null, 1, "No", "", 3, "RECOVERED/RESOLVED", "N", "N", "N", "N", "", "N", "N", "N", "07-MAR-2014", "23-FEB-2014", "23-FEB-2014", "N"]
["CDISCPILOT01", "701", "1275", "Y", "E06", "ERYTHEMA", "ERYTHEMA", null, "ERYTHEMA", null, "HLT_0284", null, "HLGT_0192", null, "SKIN AND SUBCUTANEOUS TISSUE DISORDERS", null, 1, "No", "", 3, "NOT RECOVERED/NOT RESOLVED", "N", "N", "N", "N", "", "N", "N", "N", "07-MAR-2014", "24-FEB-2014", "12-JUN-2014", "N"]
["CDISCPILOT01", "701", "1275", "Y", "E06", "ERYTHEMA", "ERYTHEMA", null, "ERYTHEMA", null, "HLT_0284", null, "HLGT_0192", null, "SKIN AND SUBCUTANEOUS TISSUE DISORDERS", null, 1, "No", "", 3, "RECOVERED/RESOLVED", "N", "N", "N", "N", "", "N", "N", "N", "14-JUN-2014", "24-FEB-2014", "12-JUN-2014", "N"]
["CDISCPILOT01", "701", "1275", "Y", "E07", "SALIVARY HYPERSECRETION", "HYPERSALIVATION", null, "SALIVARY HYPERSECRETION", null, "HLT_0374", null, "HLGT_0488", null, "GASTROINTESTINAL DISORDERS", null, 1, "No", "", 3, "NOT RECOVERED/NOT RESOLVED", "N", "N", "N", "N", "", "N", "N", "N", "07-MAR-2014", "24-FEB-2014", "03-JUN-2014", "N"]
["CDISCPILOT01", "701", "1275", "Y", "E07", "SALIVARY HYPERSECRETION", "HYPERSALIVATION", null, "SALIVARY HYPERSECRETION", null, "HLT_0374", null, "HLGT_0488", null, "GASTROINTESTINAL DISORDERS", null, 1, "No", "", 3, "RECOVERED/RESOLVED", "N", "N", "N", "N", "", "N", "N", "N", "14-JUN-2014", "24-FEB-2014", "03-JUN-2014", "N"]
["CDISCPILOT01", "701", "1275", "Y", "E08", "PAROSMIA", "STRANGE SMELL SENSATION", null, "PAROSMIA", null, "HLT_0258", null, "HLGT_0471", null, "NERVOUS SYSTEM DISORDERS", null, 1, "No", "", 3, "NOT RECOVERED/NOT RESOLVED", "N", "N", "N", "N", "", "N", "N", "N", "07-MAR-2014", "24-FEB-2014", "03-JUN-2014", "N"]
["CDISCPILOT01", "701", "1275", "Y", "E08", "PAROSMIA", "STRANGE SMELL SENSATION", null, "PAROSMIA", null, "HLT_0258", null, "HLGT_0471", null, "NERVOUS SYSTEM DISORDERS", null, 1, "No", "", 3, "RECOVERED/RESOLVED", "N", "N", "N", "N", "", "N", "N", "N", "14-JUN-2014", "24-FEB-2014", "03-JUN-2014", "N"]
["CDISCPILOT01", "701", "1275", "Y", "E09", "COUGH", "COUGH", null, "COUGH", null, "HLT_0701", null, "HLGT_0280", null, "RESPIRATORY, THORACIC AND MEDIASTINAL DISORDERS", null, 1, "No", "", 1, "NOT RECOVERED/NOT RESOLVED", "N", "N", "N", "N", "", "N", "N", "N", "22-MAR-2014", "12-MAR-2014", "27-MAR-2014", "N"]
["CDISCPILOT01", "701", "1275", "Y", "E09", "COUGH", "COUGH", null, "COUGH", null, "HLT_0701", null, "HLGT_0280", null, "RESPIRATORY, THORACIC AND MEDIASTINAL DISORDERS", null, 1, "No", "", 1, "RECOVERED/RESOLVED", "N", "N", "N", "N", "", "N", "N", "N", "05-APR-2014", "12-MAR-2014", "27-MAR-2014", "N"]
["CDISCPILOT01", "701", "1275", "Y", "E10", "NASAL CONGESTION", "NASAL CONGESTION", null, "NASAL CONGESTION", null, "HLT_0118", null, "HLGT_0549", null, "RESPIRATORY, THORACIC AND MEDIASTINAL DISORDERS", null, 1, "No", "", 1, "NOT RECOVERED/NOT RESOLVED", "N", "N", "N", "N", "", "N", "N", "N", "22-MAR-2014", "12-MAR-2014", "27-MAR-2014", "N"]
["CDISCPILOT01", "701", "1275", "Y", "E10", "NASAL CONGESTION", "NASAL CONGESTION", null, "NASAL CONGESTION", null, "HLT_0118", null, "HLGT_0549", null, "RESPIRATORY, THORACIC AND MEDIASTINAL DISORDERS", null, 1, "No", "", 1, "RECOVERED/RESOLVED", "N", "N", "N", "N", "", "N", "N", "N", "05-APR-2014", "12-MAR-2014", "27-MAR-2014", "N"]
["CDISCPILOT01", "701", "1275", "Y", "E11", "PRURITUS", "ITCHING", null, "PRURITUS", null, "HLT_0778", null, "HLGT_0695", null, "SKIN AND SUBCUTANEOUS TISSUE DISORDERS", null, 1, "No", "", 3, "NOT RECOVERED/NOT RESOLVED", "N", "N", "N", "N", "", "N", "N", "N", "07-MAR-2014", "24-FEB-2014", "12-JUN-2014", "N"]
["CDISCPILOT01", "701", "1275", "Y", "E11", "PRURITUS", "ITCHING", null, "PRURITUS", null, "HLT_0778", null, "HLGT_0695", null, "SKIN AND SUBCUTANEOUS TISSUE DISORDERS", null, 1, "No", "", 3, "RECOVERED/RESOLVED", "N", "N", "N", "N", "", "N", "N", "N", "14-JUN-2014", "24-FEB-2014", "12-JUN-2014", "N"]
["CDISCPILOT01", "701", "1287", "Y", "E02", "SALIVARY HYPERSECRETION", "INCREASED SALIVATION", null, "SALIVARY HYPERSECRETION", null, "HLT_0374", null, "HLGT_0488", null, "GASTROINTESTINAL DISORDERS", null, 1, "No", "", 1, "NOT RECOVERED/NOT RESOLVED", "N", "N", "N", "N", "", "N", "N", "N", "11-FEB-2014", "26-JAN-2014", "", "Y"]
["CDISCPILOT01", "701", "1287", "Y", "E03", "APPLICATION SITE PRURITUS", "APPLICATION SITE ITCHING", null, "APPLICATION SITE PRURITUS", null, "HLT_0317", null, "HLGT_0338", null, "GENERAL DISORDERS AND ADMINISTRATION SITE CONDITIONS", null, 1, "No", "", 3, "NOT RECOVERED/NOT RESOLVED", "N", "N", "N", "N", "", "N", "N", "N", "06-MAR-2014", "22-FEB-2014", "", "Y"]
["CDISCPILOT01", "701", "1287", "Y", "E04", "APPLICATION SITE ERYTHEMA", "APPLICATION SITE REDNESS", null, "APPLICATION SITE ERYTHEMA", null, "HLT_0617", null, "HLGT_0152", null, "GENERAL DISORDERS AND ADMINISTRATION SITE CONDITIONS", null, 1, "No", "", 4, "NOT RECOVERED/NOT RESOLVED", "N", "N", "N", "N", "", "N", "N", "N", "21-MAR-2014", "09-MAR-2014", "", "Y"]
["CDISCPILOT01", "701", "1287", "Y", "E05", "RHINORRHOEA", "RUNNY NOSE", null, "RHINORRHOEA", null, "HLT_0635", null, "HLGT_0460", null, "RESPIRATORY, THORACIC AND MEDIASTINAL DISORDERS", null, 1, "No", "", 1, "NOT RECOVERED/NOT RESOLVED", "N", "N", "N", "N", "", "N", "N", "N", "12-JUL-2014", "09-JUL-2014", "12-JUL-2014", "N"]
["CDISCPILOT01", "701", "1287", "Y", "E05", "RHINORRHOEA", "RUNNY NOSE", null, "RHINORRHOEA", null, "HLT_0635", null, "HLGT_0460", null, "RESPIRATORY, THORACIC AND MEDIASTINAL DISORDERS", null, 1, "No", "", 1, "RECOVERED/RESOLVED", "N", "N", "N", "N", "", "N", "N", "N", "26-JUL-2014", "09-JUL-2014", "12-JUL-2014", "N"]
["CDISCPILOT01", "701", "1294", "Y", "E06", "APPLICATION SITE PRURITUS", "APPLICATION SITE ITCHING", null, "APPLICATION SITE PRURITUS", null, "HLT_0317", null, "HLGT_0338", null, "GENERAL DISORDERS AND ADMINISTRATION SITE CONDITIONS", null, 2, "No", "", 1, "RECOVERED/RESOLVED", "N", "N", "N", "N", "", "N", "N", "N", "24-MAR-2013", "22-MAR-2013", "23-MAR-2013", "N"]
["CDISCPILOT01", "701", "1294", "Y", "E07", "APPLICATION SITE PRURITUS", "APPLICATION SITE ITCHING", null, "APPLICATION SITE PRURITUS", null, "HLT_0317", null, "HLGT_0338", null, "GENERAL DISORDERS AND ADMINISTRATION SITE CONDITIONS", null, 1, "No", "", 3, "NOT RECOVERED/NOT RESOLVED", "N", "N", "N", "N", "", "N", "N", "N", "22-MAY-2013", "19-MAY-2013", "", "Y"]
["CDISCPILOT01", "701", "1294", "Y", "E07", "APPLICATION SITE PRURITUS", "APPLICATION SITE ITCHING", null, "APPLICATION SITE PRURITUS", null, "HLT_0317", null, "HLGT_0338", null, "GENERAL DISORDERS AND ADMINISTRATION SITE CONDITIONS", null, 2, "No", "", 3, "NOT RECOVERED/NOT RESOLVED", "N", "N", "N", "N", "", "N", "N", "N", "14-JUN-2013", "19-MAY-2013", "", "Y"]
["CDISCPILOT01", "701", "1294", "Y", "E08", "APPLICATION SITE ERYTHEMA", "APPLICATION SITE REDNESS", null, "APPLICATION SITE ERYTHEMA", null, "HLT_0617", null, "HLGT_0152", null, "GENERAL DISORDERS AND ADMINISTRATION SITE CONDITIONS", null, 1, "No", "", 4, "NOT RECOVERED/NOT RESOLVED", "N", "N", "N", "N", "", "N", "N", "N", "22-MAY-2013", "19-MAY-2013", "", "Y"]
["CDISCPILOT01", "701", "1294", "Y", "E08", "APPLICATION SITE ERYTHEMA", "APPLICATION SITE REDNESS", null, "APPLICATION SITE ERYTHEMA", null, "HLT_0617", null, "HLGT_0152", null, "GENERAL DISORDERS AND ADMINISTRATION SITE CONDITIONS", null, 2, "No", "", 4, "NOT RECOVERED/NOT RESOLVED", "N", "N", "N", "N", "", "N", "N", "N", "14-JUN-2013", "19-MAY-2013", "", "Y"]
["CDISCPILOT01", "701", "1294", "Y", "E09", "RASH ERYTHEMATOUS", "ERYTHEMATOUS RASH", null, "RASH ERYTHEMATOUS", null, "HLT_0336", null, "HLGT_0701", null, "SKIN AND SUBCUTANEOUS TISSUE DISORDERS", null, 2, "No", "", 4, "NOT RECOVERED/NOT RESOLVED", "N", "N", "N", "N", "", "N", "N", "N", "14-JUN-2013", "10-JUN-2013", "", "Y"]
["CDISCPILOT01", "701", "1302", "Y", "E13", "NASAL CONGESTION", "NASAL CONGESTION", null, "NASAL CONGESTION", null, "HLT_0118", null, "HLGT_0549", null, "RESPIRATORY, THORACIC AND MEDIASTINAL DISORDERS", null, 1, "No", "", 1, "NOT RECOVERED/NOT RESOLVED", "N", "N", "N", "N", "", "N", "N", "N", "15-SEP-2013", "01-SEP-2013", "", "Y"]
["CDISCPILOT01", "701", "1302", "Y", "E14", "PHARYNGOLARYNGEAL PAIN", "SORE THROAT", null, "PHARYNGOLARYNGEAL PAIN", null, "HLT_0130", null, "HLGT_0402", null, "RESPIRATORY, THORACIC AND MEDIASTINAL DISORDERS", null, 1, "No", "", 1, "NOT RECOVERED/NOT RESOLVED", "N", "N", "N", "N", "", "N", "N", "N", "15-SEP-2013", "02-SEP-2013", "", "Y"]
["CDISCPILOT01", "701", "1302", "Y", "E15", "PRODUCTIVE COUGH", "PRODUCTIVE COUGH", null, "PRODUCTIVE COUGH", null, "HLT_0545", null, "HLGT_0681", null, "RESPIRATORY, THORACIC AND MEDIASTINAL DISORDERS", null, 1, "No", "", 1, "NOT RECOVERED/NOT RESOLVED", "N", "N", "N", "N", "", "N", "N", "N", "15-SEP-2013", "02-SEP-2013", "", "Y"]
["CDISCPILOT01", "701", "1302", "Y", "E16", "MALAISE", "MALAISE", null, "MALAISE", null, "HLT_0456", null, "HLGT_0178", null, "GENERAL DISORDERS AND ADMINISTRATION SITE CONDITIONS", null, 1, "No", "", 2, "NOT RECOVERED/NOT RESOLVED", "N", "N", "N", "N", "", "N", "N", "N", "15-SEP-2013", "02-SEP-2013", "", "Y"]
["CDISCPILOT01", "701", "1302", "Y", "E16", "MALAISE", "MALAISE", null, "MALAISE", null, "HLT_0456", null, "HLGT_0178", null, "GENERAL DISORDERS AND ADMINISTRATION SITE CONDITIONS", null, 2, "No", "", 2, "NOT RECOVERED/NOT RESOLVED", "N", "N", "N", "N", "", "N", "N", "N", "05-NOV-2013", "02-SEP-2013", "", "Y"]
["CDISCPILOT01", "701", "1302", "Y", "E17", "DIZZINESS", "DIZZY", null, "DIZZINESS", null, "HLT_0619", null, "HLGT_0751", null, "NERVOUS SYSTEM DISORDERS", null, 2, "No", "", 2, "RECOVERED/RESOLVED", "N", "N", "N", "N", "", "N", "N", "N", "15-SEP-2013", "02-SEP-2013", "03-SEP-2013", "N"]
["CDISCPILOT01", "701", "1302", "Y", "E18", "MYALGIA", "MYALGIA", null, "MYALGIA", null, "HLT_0700", null, "HLGT_0121", null, "MUSCULOSKELETAL AND CONNECTIVE TISSUE DISORDERS", null, 1, "No", "", 3, "NOT RECOVERED/NOT RESOLVED", "N", "N", "N", "N", "", "N", "N", "N", "15-SEP-2013", "02-SEP-2013", "", "Y"]
["CDISCPILOT01", "701", "1302", "Y", "E19", "CONTUSION", "BRUISE", null, "CONTUSION", null, "HLT_0713", null, "HLGT_0381", null, "INJURY, POISONING AND PROCEDURAL COMPLICATIONS", null, 1, "No", "", 2, "NOT RECOVERED/NOT RESOLVED", "N", "N", "N", "N", "", "N", "N", "N", "15-SEP-2013", "05-SEP-2013", "08-OCT-2013", "N"]
["CDISCPILOT01", "701", "1302", "Y", "E19", "CONTUSION", "BRUISE", null, "CONTUSION", null, "HLT_0713", null, "HLGT_0381", null, "INJURY, POISONING AND PROCEDURAL COMPLICATIONS", null, 1, "No", "", 2, "RECOVERED/RESOLVED", "N", "N", "N", "N", "", "N", "N", "N", "22-OCT-2013", "05-SEP-2013", "08-OCT-2013", "N"]
["CDISCPILOT01", "701", "1302", "Y", "E20", "DIZZINESS", "LIGHTHEADEDNESS", null, "DIZZINESS", null, "HLT_0619", null, "HLGT_0751", null, "NERVOUS SYSTEM DISORDERS", null, 1, "No", "", 3, "NOT RECOVERED/NOT RESOLVED", "N", "N", "N", "N", "", "N", "N", "N", "15-SEP-2013", "04-SEP-2013", "", "Y"]
["CDISCPILOT01", "701", "1302", "Y", "E21", "APPLICATION SITE PERSPIRATION", "APPLICATION SITE PERSPIRATION", null, "APPLICATION SITE PERSPIRATION", null, "HLT_0283", null, "HLGT_0403", null, "GENERAL DISORDERS AND ADMINISTRATION SITE CONDITIONS", null, 1, "No", "", 3, "NOT RECOVERED/NOT RESOLVED", "N", "N", "N", "N", "", "N", "N", "N", "15-SEP-2013", "30-AUG-2013", "", "Y"]
["CDISCPILOT01", "701", "1302", "Y", "E22", "PAIN", "STINGING", null, "PAIN", null, "HLT_0314", null, "HLGT_0478", null, "GENERAL DISORDERS AND ADMINISTRATION SITE CONDITIONS", null, 1, "No", "", 3, "NOT RECOVERED/NOT RESOLVED", "N", "N", "N", "N", "", "N", "N", "N", "15-SEP-2013", "31-AUG-2013", "", "Y"]
["CDISCPILOT01", "701", "1302", "Y", "E23", "HEADACHE", "HEADACHE", null, "HEADACHE", null, "HLT_0064", null, "HLGT_0344", null, "NERVOUS SYSTEM DISORDERS", null, 1, "No", "", 1, "NOT RECOVERED/NOT RESOLVED", "N", "N", "N", "N", "", "N", "N", "N", "15-SEP-2013", "15-SEP-2013", "", "Y"]
["CDISCPILOT01", "701", "1302", "Y", "E24", "HYPERHIDROSIS", "PERSPIRATION EXCESSIVE", null, "HYPERHIDROSIS", null, "HLT_0587", null, "HLGT_0005", null, "SKIN AND SUBCUTANEOUS TISSUE DISORDERS", null, 1, "No", "", 3, "NOT RECOVERED/NOT RESOLVED", "N", "N", "N", "N", "", "N", "N", "N", "15-SEP-2013", "30-AUG-2013", "", "Y"]
["CDISCPILOT01", "701", "1302", "Y", "E25", "EPISTAXIS", "NOSE BLEED", null, "EPISTAXIS", null, "HLT_0386", null, "HLGT_0577", null, "RESPIRATORY, THORACIC AND MEDIASTINAL DISORDERS", null, 1, "No", "", 2, "NOT RECOVERED/NOT RESOLVED", "N", "N", "N", "N", "", "N", "N", "N", "08-OCT-2013", "30-SEP-2013", "", "Y"]
["CDISCPILOT01", "701", "1302", "Y", "E26", "STOMACH DISCOMFORT", "STOMACH UPSET", null, "STOMACH DISCOMFORT", null, "HLT_0065", null, "HLGT_0183", null, "GASTROINTESTINAL DISORDERS", null, 1, "No", "", 3, "NOT RECOVERED/NOT RESOLVED", "N", "N", "N", "N", "", "N", "N", "N", "15-SEP-2013", "30-AUG-2013", "", "Y"]
["CDISCPILOT01", "701", "1302", "Y", "E27", "APPLICATION SITE ERYTHEMA", "APPLICATION SITE REDNESS", null, "APPLICATION SITE ERYTHEMA", null, "HLT_0617", null, "HLGT_0152", null, "GENERAL DISORDERS AND ADMINISTRATION SITE CONDITIONS", null, 1, "No", "", 4, "NOT RECOVERED/NOT RESOLVED", "N", "N", "N", "N", "", "N", "N", "N", "22-OCT-2013", "15-OCT-2013", "", "Y"]
["CDISCPILOT01", "701", "1302", "Y", "E28", "APPLICATION SITE PRURITUS", "APPLICATION SITE ITCHING", null, "APPLICATION SITE PRURITUS", null, "HLT_0317", null, "HLGT_0338", null, "GENERAL DISORDERS AND ADMINISTRATION SITE CONDITIONS", null, 1, "No", "", 4, "NOT RECOVERED/NOT RESOLVED", "N", "N", "N", "N", "", "N", "N", "N", "22-OCT-2013", "15-OCT-2013", "", "Y"]
["CDISCPILOT01", "701", "1302", "Y", "E29", "RESPIRATORY TRACT CONGESTION", "RESPIRATORY TRACT CONGESTION", null, "RESPIRATORY TRACT CONGESTION", null, "HLT_0330", null, "HLGT_0424", null, "RESPIRATORY, THORACIC AND MEDIASTINAL DISORDERS", null, 1, "No", "", 1, "NOT RECOVERED/NOT RESOLVED", "N", "N", "N", "N", "", "N", "N", "N", "05-NOV-2013", "23-OCT-2013", "", "Y"]
["CDISCPILOT01", "701", "1302", "Y", "E30", "RHINITIS", "CORYZA", null, "RHINITIS", null, "HLT_0239", null, "HLGT_0322", null, "INFECTIONS AND INFESTATIONS", null, 1, "No", "", 1, "NOT RECOVERED/NOT RESOLVED", "N", "N", "N", "N", "", "N", "N", "N", "05-NOV-2013", "23-OCT-2013", "", "Y"]
["CDISCPILOT01", "701", "1302", "Y", "E31", "FEELING ABNORMAL", "FOGGY FEELING IN HEAD", null, "FEELING ABNORMAL", null, "HLT_0524", null, "HLGT_0749", null, "GENERAL DISORDERS AND ADMINISTRATION SITE CONDITIONS", null, 1, "No", "", 3, "NOT RECOVERED/NOT RESOLVED", "N", "N", "N", "N", "", "N", "N", "N", "05-NOV-2013", "24-OCT-2013", "", "Y"]
["CDISCPILOT01", "701", "1302", "Y", "E32", "LISTLESS", "LISTLESSNESS", null, "LISTLESS", null, "HLT_0657", null, "HLGT_0124", null, "PSYCHIATRIC DISORDERS", null, 1, "No", "", 3, "NOT RECOVERED/NOT RESOLVED", "N", "N", "N", "N", "", "N", "N", "N", "05-NOV-2013", "24-OCT-2013", "", "Y"]
["CDISCPILOT01", "701", "1302", "Y", "E33", "LIBIDO DECREASED", "LIBIDO DECREASED", null, "LIBIDO DECREASED", null, "HLT_0338", null, "HLGT_0496", null, "PSYCHIATRIC DISORDERS", null, 1, "No", "", 3, "NOT RECOVERED/NOT RESOLVED", "N", "N", "N", "N", "", "N", "N", "N", "05-NOV-2013", "24-OCT-2013", "", "Y"]
["CDISCPILOT01", "701", "1307", "N", "", "", "", null, "", null, "", null, "", null, "", null, null, "", "", null, "", "", "", "", "", "", "", "", "", "", "", "", ""]
["CDISCPILOT01", "701", "1317", "Y", "E11", "ONYCHOMYCOSIS", "ONYCHOMYCOSIS", null, "ONYCHOMYCOSIS", null, "HLT_0275", null, "HLGT_0243", null, "INFECTIONS AND INFESTATIONS", null, 1, "No", "", 1, "NOT RECOVERED/NOT RESOLVED", "N", "N", "N", "N", "", "N", "N", "N", "20-MAY-2014", "13-MAY-2014", "", "Y"]
["CDISCPILOT01", "701", "1317", "Y", "E12", "CYST", "CYST", null, "CYST", null, "HLT_0763", null, "HLGT_0341", null, "GENERAL DISORDERS AND ADMINISTRATION SITE CONDITIONS", null, 1, "No", "", 1, "NOT RECOVERED/NOT RESOLVED", "N", "N", "N", "N", "", "N", "N", "N", "20-MAY-2014", "13-MAY-2014", "", "Y"]
["CDISCPILOT01", "701", "1317", "Y", "E13", "APPLICATION SITE ERYTHEMA", "APPLICATION SITE REDNESS", null, "APPLICATION SITE ERYTHEMA", null, "HLT_0617", null, "HLGT_0152", null, "GENERAL DISORDERS AND ADMINISTRATION SITE CONDITIONS", null, 1, "No", "", 3, "NOT RECOVERED/NOT RESOLVED", "N", "N", "N", "N", "", "N", "N", "N", "03-JUL-2014", "23-JUN-2014", "", "Y"]
["CDISCPILOT01", "701", "1317", "Y", "E14", "APPLICATION SITE PRURITUS", "APPLICATION SITE ITCHING", null, "APPLICATION SITE PRURITUS", null, "HLT_0317", null, "HLGT_0338", null, "GENERAL DISORDERS AND ADMINISTRATION SITE CONDITIONS", null, 1, "No", "", 3, "NOT RECOVERED/NOT RESOLVED", "N", "N", "N", "N", "", "N", "N", "N", "03-JUL-2014", "23-JUN-2014", "", "Y"]
["CDISCPILOT01", "701", "1317", "Y", "E15", "APPLICATION SITE URTICARIA", "APPLICATION SITE URTICARIA", null, "APPLICATION SITE URTICARIA", null, "HLT_0196", null, "HLGT_0233", null, "GENERAL DISORDERS AND ADMINISTRATION SITE CONDITIONS", null, 1, "No", "", 3, "NOT RECOVERED/NOT RESOLVED", "N", "N", "N", "N", "", "N", "N", "N", "03-JUL-2014", "23-JUN-2014", "", "Y"]
["CDISCPILOT01", "701", "1317", "Y", "E16", "DEPRESSED MOOD", "DEPRESSED MOOD", null, "DEPRESSED MOOD", null, "HLT_0784", null, "HLGT_0122", null, "PSYCHIATRIC DISORDERS", null, 1, "No", "", 3, "NOT RECOVERED/NOT RESOLVED", "N", "N", "N", "N", "", "N", "N", "N", "22-JUL-2014", "04-JUL-2014", "", "Y"]
["CDISCPILOT01", "701", "1317", "Y", "E16", "DEPRESSED MOOD", "DEPRESSED MOOD", null, "DEPRESSED MOOD", null, "HLT_0784", null, "HLGT_0122", null, "PSYCHIATRIC DISORDERS", null, 2, "No", "", 3, "NOT RECOVERED/NOT RESOLVED", "N", "N", "N", "N", "", "N", "N", "N", "09-OCT-2014", "04-JUL-2014", "", "Y"]
["CDISCPILOT01", "701", "1317", "Y", "E17", "FATIGUE", "TIREDNESS", null, "FATIGUE", null, "HLT_0043", null, "HLGT_0181", null, "GENERAL DISORDERS AND ADMINISTRATION SITE CONDITIONS", null, 1, "No", "", 2, "NOT RECOVERED/NOT RESOLVED", "N", "N", "N", "N", "", "N", "N", "N", "09-OCT-2014", "12-SEP-2014", "", "Y"]
["CDISCPILOT01", "701", "1317", "Y", "E18", "DYSPHONIA", "HOARSENESS", null, "DYSPHONIA", null, "HLT_0073", null, "HLGT_0274", null, "RESPIRATORY, THORACIC AND MEDIASTINAL DISORDERS", null, 1, "No", "", 2, "NOT RECOVERED/NOT RESOLVED", "N", "N", "N", "N", "", "N", "N", "N", "06-NOV-2014", "03-NOV-2014", "", "Y"]
["CDISCPILOT01", "701", "1324", "Y", "E04", "APPLICATION SITE ERYTHEMA", "APPLICATION SITE ERYTHEMA", null, "APPLICATION SITE ERYTHEMA", null, "HLT_0617", null, "HLGT_0152", null, "GENERAL DISORDERS AND ADMINISTRATION SITE CONDITIONS", null, 1, "No", "", 4, "NOT RECOVERED/NOT RESOLVED", "N", "N", "N", "N", "", "N", "N", "N", "30-OCT-2012", "22-OCT-2012", "", "Y"]
["CDISCPILOT01", "701", "1324", "Y", "E05", "APPLICATION SITE VESICLES", "APPLICATION SITE BLISTER", null, "APPLICATION SITE VESICLES", null, "HLT_0180", null, "HLGT_0576", null, "GENERAL DISORDERS AND ADMINISTRATION SITE CONDITIONS", null, 1, "No", "", 4, "NOT RECOVERED/NOT RESOLVED", "N", "N", "N", "N", "", "N", "N", "N", "25-DEC-2012", "25-DEC-2012", "16-JAN-2013", "N"]
["CDISCPILOT01", "701", "1324", "Y", "E05", "APPLICATION SITE VESICLES", "APPLICATION SITE BLISTER", null, "APPLICATION SITE VESICLES", null, "HLT_0180", null, "HLGT_0576", null, "GENERAL DISORDERS AND ADMINISTRATION SITE CONDITIONS", null, 1, "No", "", 4, "RECOVERED/RESOLVED", "N", "N", "N", "N", "", "N", "N", "N", "22-JAN-2013", "25-DEC-2012", "16-JAN-2013", "N"]
["CDISCPILOT01", "701", "1324", "Y", "E06", "APPLICATION SITE PRURITUS", "APPLICATION SITE ITCHING", null, "APPLICATION SITE PRURITUS", null, "HLT_0317", null, "HLGT_0338", null, "GENERAL DISORDERS AND ADMINISTRATION SITE CONDITIONS", null, 1, "No", "", 4, "NOT RECOVERED/NOT RESOLVED", "N", "N", "N", "N", "", "N", "N", "N", "25-DEC-2012", "02-DEC-2012", "", "Y"]
["CDISCPILOT01", "701", "1341", "Y", "E09", "APPLICATION SITE PRURITUS", "APPLICATION SITE ITCHING", null, "APPLICATION SITE PRURITUS", null, "HLT_0317", null, "HLGT_0338", null, "GENERAL DISORDERS AND ADMINISTRATION SITE CONDITIONS", null, 2, "No", "", 4, "NOT RECOVERED/NOT RESOLVED", "N", "N", "N", "N", "", "N", "N", "N", "07-FEB-2013", "19-JAN-2013", "", "Y"]
["CDISCPILOT01", "701", "1341", "Y", "E10", "APPLICATION SITE ERYTHEMA", "APPLICATION SITE REDNESS", null, "APPLICATION SITE ERYTHEMA", null, "HLT_0617", null, "HLGT_0152", null, "GENERAL DISORDERS AND ADMINISTRATION SITE CONDITIONS", null, 2, "No", "", 4, "NOT RECOVERED/NOT RESOLVED", "N", "N", "N", "N", "", "N", "N", "N", "07-FEB-2013", "19-JAN-2013", "", "Y"]
["CDISCPILOT01", "701", "1341", "Y", "E11", "APPLICATION SITE PRURITUS", "APPLICATION SITE ITCHING", null, "APPLICATION SITE PRURITUS", null, "HLT_0317", null, "HLGT_0338", null, "GENERAL DISORDERS AND ADMINISTRATION SITE CONDITIONS", null, 2, "No", "", 4, "RECOVERED/RESOLVED", "N", "N", "N", "N", "", "N", "N", "N", "07-FEB-2013", "26-JAN-2013", "30-JAN-2013", "N"]
["CDISCPILOT01", "701", "1341", "Y", "E12", "APPLICATION SITE ERYTHEMA", "APPLICATION SITE REDNESS", null, "APPLICATION SITE ERYTHEMA", null, "HLT_0617", null, "HLGT_0152", null, "GENERAL DISORDERS AND ADMINISTRATION SITE CONDITIONS", null, 2, "No", "", 4, "NOT RECOVERED/NOT RESOLVED", "N", "N", "N", "N", "", "N", "N", "N", "07-FEB-2013", "26-JAN-2013", "", "Y"]
["CDISCPILOT01", "701", "1341", "Y", "E13", "APPLICATION SITE IRRITATION", "APPLICATION SITE BURNING", null, "APPLICATION SITE IRRITATION", null, "HLT_0061", null, "HLGT_0346", null, "GENERAL DISORDERS AND ADMINISTRATION SITE CONDITIONS", null, 2, "No", "", 4, "RECOVERED/RESOLVED", "N", "N", "N", "N", "", "N", "N", "N", "07-FEB-2013", "26-JAN-2013", "30-JAN-2013", "N"]
["CDISCPILOT01", "701", "1345", "N", "", "", "", null, "", null, "", null, "", null, "", null, null, "", "", null, "", "", "", "", "", "", "", "", "", "", "", "", ""]
["CDISCPILOT01", "701", "1356", "N", "", "", "", null, "", null, "", null, "", null, "", null, null, "", "", null, "", "", "", "", "", "", "", "", "", "", "", "", ""]
["CDISCPILOT01", "701", "1360", "Y", "E08", "APPLICATION SITE ERYTHEMA", "APPLICATION SITE ERYTHEMA", null, "APPLICATION SITE ERYTHEMA", null, "HLT_0617", null, "HLGT_0152", null, "GENERAL DISORDERS AND ADMINISTRATION SITE CONDITIONS", null, 2, "No", "", 4, "NOT RECOVERED/NOT RESOLVED", "N", "N", "N", "N", "", "N", "N", "N", "14-AUG-2013", "02-AUG-2013", "", "Y"]
["CDISCPILOT01", "701", "1360", "Y", "E09", "APPLICATION SITE PRURITUS", "APPLICATION SITE ITCHING", null, "APPLICATION SITE PRURITUS", null, "HLT_0317", null, "HLGT_0338", null, "GENERAL DISORDERS AND ADMINISTRATION SITE CONDITIONS", null, 2, "No", "", 4, "NOT RECOVERED/NOT RESOLVED", "N", "N", "N", "N", "", "N", "N", "N", "14-AUG-2013", "02-AUG-2013", "", "Y"]
["CDISCPILOT01", "701", "1360", "Y", "E10", "APPLICATION SITE VESICLES", "APPLICATION SITE BLISTER", null, "APPLICATION SITE VESICLES", null, "HLT_0180", null, "HLGT_0576", null, "GENERAL DISORDERS AND ADMINISTRATION SITE CONDITIONS", null, 2, "No", "", 4, "NOT RECOVERED/NOT RESOLVED", "N", "N", "N", "N", "", "N", "N", "N", "14-AUG-2013", "05-AUG-2013", "", "Y"]
["CDISCPILOT01", "701", "1363", "Y", "E03", "HEADACHE", "HEADACHE", null, "HEADACHE", null, "HLT_0064", null, "HLGT_0344", null, "NERVOUS SYSTEM DISORDERS", null, 2, "No", "", 3, "NOT RECOVERED/NOT RESOLVED", "N", "N", "N", "N", "", "N", "N", "N", "24-JUL-2013", "1986", "", "Y"]
["CDISCPILOT01", "701", "1363", "Y", "E03", "HEADACHE", "HEADACHE", null, "HEADACHE", null, "HLT_0064", null, "HLGT_0344", null, "NERVOUS SYSTEM DISORDERS", null, 1, "No", "", 3, "NOT RECOVERED/NOT RESOLVED", "N", "N", "N", "N", "", "N", "N", "N", "14-OCT-2013", "1986", "", "Y"]
["CDISCPILOT01", "701", "1363", "Y", "E09", "NAUSEA", "NAUSEA", null, "NAUSEA", null, "HLT_0742", null, "HLGT_0326", null, "GASTROINTESTINAL DISORDERS", null, 1, "No", "", 2, "RECOVERED/RESOLVED", "N", "N", "N", "N", "", "N", "N", "N", "25-JUN-2013", "14-JUN-2013", "15-JUN-2013", "N"]
["CDISCPILOT01", "701", "1363", "Y", "E11", "APPLICATION SITE PRURITUS", "APPLICATION SITE ITCHING", null, "APPLICATION SITE PRURITUS", null, "HLT_0317", null, "HLGT_0338", null, "GENERAL DISORDERS AND ADMINISTRATION SITE CONDITIONS", null, 1, "No", "", 4, "NOT RECOVERED/NOT RESOLVED", "N", "N", "N", "N", "", "N", "N", "N", "24-JUL-2013", "16-JUL-2013", "", "Y"]
["CDISCPILOT01", "701", "1363", "Y", "E13", "BACK PAIN", "BACKACHE", null, "BACK PAIN", null, "HLT_0115", null, "HLGT_0508", null, "MUSCULOSKELETAL AND CONNECTIVE TISSUE DISORDERS", null, 1, "No", "", 1, "NOT RECOVERED/NOT RESOLVED", "N", "N", "N", "N", "", "N", "N", "N", "14-OCT-2013", "13-OCT-2013", "15-OCT-2013", "N"]
["CDISCPILOT01", "701", "1363", "Y", "E13", "BACK PAIN", "BACKACHE", null, "BACK PAIN", null, "HLT_0115", null, "HLGT_0508", null, "MUSCULOSKELETAL AND CONNECTIVE TISSUE DISORDERS", null, 1, "No", "", 1, "RECOVERED/RESOLVED", "N", "N", "N", "N", "", "N", "N", "N", "13-NOV-2013", "13-OCT-2013", "15-OCT-2013", "N"]
["CDISCPILOT01", "701", "1369", "N", "", "", "", null, "", null, "", null, "", null, "", null, null, "", "", null, "", "", "", "", "", "", "", "", "", "", "", "", ""]
["CDISCPILOT01", "701", "1383", "Y", "E04", "APPLICATION SITE PRURITUS", "APPLICATION SITE ITCHING", null, "APPLICATION SITE PRURITUS", null, "HLT_0317", null, "HLGT_0338", null, "GENERAL DISORDERS AND ADMINISTRATION SITE CONDITIONS", null, 1, "No", "", 4, "RECOVERED/RESOLVED", "N", "N", "N", "N", "", "N", "N", "N", "19-FEB-2013", "07-FEB-2013", "07-FEB-2013", "N"]
["CDISCPILOT01", "701", "1383", "Y", "E05", "APPLICATION SITE PAIN", "APPLICATION SITE PAIN", null, "APPLICATION SITE PAIN", null, "HLT_0342", null, "HLGT_0085", null, "GENERAL DISORDERS AND ADMINISTRATION SITE CONDITIONS", null, 1, "No", "", 4, "RECOVERED/RESOLVED", "N", "N", "N", "N", "", "N", "N", "N", "19-FEB-2013", "07-FEB-2013", "07-FEB-2013", "N"]
["CDISCPILOT01", "701", "1383", "Y", "E06", "APPLICATION SITE ERYTHEMA", "APPLICATION SITE ERYTHEMA", null, "APPLICATION SITE ERYTHEMA", null, "HLT_0617", null, "HLGT_0152", null, "GENERAL DISORDERS AND ADMINISTRATION SITE CONDITIONS", null, 1, "No", "", 3, "RECOVERED/RESOLVED", "N", "N", "N", "N", "", "N", "N", "N", "02-APR-2013", "23-MAR-2013", "26-MAR-2013", "N"]
["CDISCPILOT01", "701", "1383", "Y", "E07", "APPLICATION SITE PRURITUS", "APPLICATION SITE ITCHING", null, "APPLICATION SITE PRURITUS", null, "HLT_0317", null, "HLGT_0338", null, "GENERAL DISORDERS AND ADMINISTRATION SITE CONDITIONS", null, 1, "No", "", 3, "NOT RECOVERED/NOT RESOLVED", "N", "N", "N", "N", "", "N", "N", "N", "02-APR-2013", "23-MAR-2013", "", "Y"]
["CDISCPILOT01", "701", "1383", "Y", "E07", "APPLICATION SITE PRURITUS", "APPLICATION SITE ITCHING", null, "APPLICATION SITE PRURITUS", null, "HLT_0317", null, "HLGT_0338", null, "GENERAL DISORDERS AND ADMINISTRATION SITE CONDITIONS", null, 2, "No", "", 3, "NOT RECOVERED/NOT RESOLVED", "N", "N", "N", "N", "", "N", "N", "N", "30-MAY-2013", "23-MAR-2013", "", "Y"]
["CDISCPILOT01", "701", "1383", "Y", "E08", "APPLICATION SITE ERYTHEMA", "APPLICATION SITE ERYTHEMA", null, "APPLICATION SITE ERYTHEMA", null, "HLT_0617", null, "HLGT_0152", null, "GENERAL DISORDERS AND ADMINISTRATION SITE CONDITIONS", null, 1, "No", "", 3, "NOT RECOVERED/NOT RESOLVED", "N", "N", "N", "N", "", "N", "N", "N", "30-APR-2013", "12-APR-2013", "", "Y"]
["CDISCPILOT01", "701", "1383", "Y", "E09", "APPLICATION SITE IRRITATION", "APPLICATION SITE BURNING", null, "APPLICATION SITE IRRITATION", null, "HLT_0061", null, "HLGT_0346", null, "GENERAL DISORDERS AND ADMINISTRATION SITE CONDITIONS", null, 1, "No", "", 3, "NOT RECOVERED/NOT RESOLVED", "N", "N", "N", "N", "", "N", "N", "N", "30-APR-2013", "12-APR-2013", "", "Y"]
["CDISCPILOT01", "701", "1383", "Y", "E09", "APPLICATION SITE IRRITATION", "APPLICATION SITE BURNING", null, "APPLICATION SITE IRRITATION", null, "HLT_0061", null, "HLGT_0346", null, "GENERAL DISORDERS AND ADMINISTRATION SITE CONDITIONS", null, 2, "No", "", 3, "NOT RECOVERED/NOT RESOLVED", "N", "N", "N", "N", "", "N", "N", "N", "30-MAY-2013", "12-APR-2013", "", "Y"]
["CDISCPILOT01", "701", "1383", "Y", "E10", "APPLICATION SITE VESICLES", "APPLICATION SITE BLISTER", null, "APPLICATION SITE VESICLES", null, "HLT_0180", null, "HLGT_0576", null, "GENERAL DISORDERS AND ADMINISTRATION SITE CONDITIONS", null, 1, "No", "", 3, "RECOVERED/RESOLVED", "N", "N", "N", "N", "", "N", "N", "N", "30-MAY-2013", "07-MAY-2013", "24-MAY-2013", "N"]
["CDISCPILOT01", "701", "1383", "Y", "E11", "CHEST DISCOMFORT", "CHEST PRESSURE", null, "CHEST DISCOMFORT", null, "HLT_0593", null, "HLGT_0441", null, "GENERAL DISORDERS AND ADMINISTRATION SITE CONDITIONS", null, 1, "No", "", 1, "RECOVERED/RESOLVED", "N", "N", "N", "N", "", "N", "N", "N", "25-JUN-2013", "24-JUN-2013", "24-JUN-2013", "N"]
["CDISCPILOT01", "701", "1383", "Y", "E12", "HEADACHE", "FULLNESS HEAD", null, "HEADACHE", null, "HLT_0064", null, "HLGT_0344", null, "NERVOUS SYSTEM DISORDERS", null, 1, "No", "", 1, "RECOVERED/RESOLVED", "N", "N", "N", "N", "", "N", "N", "N", "25-JUN-2013", "24-JUN-2013", "24-JUN-2013", "N"]
["CDISCPILOT01", "701", "1383", "Y", "E13", "COUGH", "COUGH", null, "COUGH", null, "HLT_0701", null, "HLGT_0280", null, "RESPIRATORY, THORACIC AND MEDIASTINAL DISORDERS", null, 2, "No", "", 1, "RECOVERED/RESOLVED", "N", "N", "N", "N", "", "N", "N", "N", "30-JUL-2013", "17-JUL-2013", "26-JUL-2013", "N"]
["CDISCPILOT01", "701", "1386", "N", "", "", "", null, "", null, "", null, "", null, "", null, null, "", "", null, "", "", "", "", "", "", "", "", "", "", "", "", ""]
["CDISCPILOT01", "701", "1387", "Y", "E08", "DIARRHOEA", "DIARRHEA", null, "DIARRHOEA", null, "HLT_0148", null, "HLGT_0588", null, "GASTROINTESTINAL DISORDERS", null, 1, "No", "", 2, "RECOVERED/RESOLVED", "N", "N", "N", "N", "", "N", "N", "N", "25-MAR-2014", "18-MAR-2014", "18-MAR-2014", "N"]
["CDISCPILOT01", "701", "1387", "Y", "E09", "HYPERHIDROSIS", "SWEATING", null, "HYPERHIDROSIS", null, "HLT_0587", null, "HLGT_0005", null, "SKIN AND SUBCUTANEOUS TISSUE DISORDERS", null, 1, "No", "", 2, "RECOVERED/RESOLVED", "N", "N", "N", "N", "", "N", "N", "N", "25-MAR-2014", "18-MAR-2014", "18-MAR-2014", "N"]
["CDISCPILOT01", "701", "1392", "Y", "E04", "UPPER RESPIRATORY TRACT INFECTION", "UPPER RESPIRATORY INFECTION", null, "UPPER RESPIRATORY TRACT INFECTION", null, "HLT_0520", null, "HLGT_0489", null, "INFECTIONS AND INFESTATIONS", null, 1, "No", "", 2, "NOT RECOVERED/NOT RESOLVED", "N", "N", "N", "N", "", "N", "N", "N", "17-MAR-2013", "16-MAR-2013", "21-MAR-2013", "N"]
["CDISCPILOT01", "701", "1392", "Y", "E04", "UPPER RESPIRATORY TRACT INFECTION", "UPPER RESPIRATORY INFECTION", null, "UPPER RESPIRATORY TRACT INFECTION", null, "HLT_0520", null, "HLGT_0489", null, "INFECTIONS AND INFESTATIONS", null, 1, "No", "", 2, "RECOVERED/RESOLVED", "N", "N", "N", "N", "", "N", "N", "N", "15-APR-2013", "16-MAR-2013", "21-MAR-2013", "N"]
["CDISCPILOT01", "701", "1411", "N", "", "", "", null, "", null, "", null, "", null, "", null, null, "", "", null, "", "", "", "", "", "", "", "", "", "", "", "", ""]
["CDISCPILOT01", "701", "1415", "Y", "E09", "UPPER RESPIRATORY TRACT INFECTION", "UPPER RESPIRATORY INFECTION", null, "UPPER RESPIRATORY TRACT INFECTION", null, "HLT_0520", null, "HLGT_0489", null, "INFECTIONS AND INFESTATIONS", null, 1, "No", "", 1, "NOT RECOVERED/NOT RESOLVED", "N", "N", "N", "N", "", "N", "N", "N", "22-OCT-2013", "21-OCT-2013", "04-NOV-2013", "N"]
["CDISCPILOT01", "701", "1415", "Y", "E09", "UPPER RESPIRATORY TRACT INFECTION", "UPPER RESPIRATORY INFECTION", null, "UPPER RESPIRATORY TRACT INFECTION", null, "HLT_0520", null, "HLGT_0489", null, "INFECTIONS AND INFESTATIONS", null, 1, "No", "", 1, "RECOVERED/RESOLVED", "N", "N", "N", "N", "", "N", "N", "N", "21-NOV-2013", "21-OCT-2013", "04-NOV-2013", "N"]
["CDISCPILOT01", "701", "1415", "Y", "E10", "MICTURITION URGENCY", "URINARY URGENCY", null, "MICTURITION URGENCY", null, "HLT_0294", null, "HLGT_0483", null, "RENAL AND URINARY DISORDERS", null, 1, "No", "", 1, "NOT RECOVERED/NOT RESOLVED", "N", "N", "N", "N", "", "N", "N", "N", "21-DEC-2013", "02-DEC-2013", "", "Y"]
["CDISCPILOT01", "701", "1415", "Y", "E11", "UPPER RESPIRATORY TRACT INFECTION", "UPPER RESPIRATORY INFECTION", null, "UPPER RESPIRATORY TRACT INFECTION", null, "HLT_0520", null, "HLGT_0489", null, "INFECTIONS AND INFESTATIONS", null, 1, "No", "", 2, "NOT RECOVERED/NOT RESOLVED", "N", "N", "N", "N", "", "N", "N", "N", "10-FEB-2014", "21-JAN-2014", "10-FEB-2014", "N"]
["CDISCPILOT01", "701", "1415", "Y", "E11", "UPPER RESPIRATORY TRACT INFECTION", "UPPER RESPIRATORY INFECTION", null, "UPPER RESPIRATORY TRACT INFECTION", null, "HLT_0520", null, "HLGT_0489", null, "INFECTIONS AND INFESTATIONS", null, 1, "No", "", 2, "RECOVERED/RESOLVED", "N", "N", "N", "N", "", "N", "N", "N", "10-MAR-2014", "21-JAN-2014", "10-FEB-2014", "N"]
["CDISCPILOT01", "701", "1415", "Y", "E12", "DIARRHOEA", "DIARRHEA", null, "DIARRHOEA", null, "HLT_0148", null, "HLGT_0588", null, "GASTROINTESTINAL DISORDERS", null, 1, "No", "", 1, "RECOVERED/RESOLVED", "N", "N", "N", "N", "", "N", "N", "N", "10-MAR-2014", "09-MAR-2014", "09-MAR-2014", "N"]
["CDISCPILOT01", "701", "1429", "N", "", "", "", null, "", null, "", null, "", null, "", null, null, "", "", null, "", "", "", "", "", "", "", "", "", "", "", "", ""]
["CDISCPILOT01", "701", "1440", "N", "", "", "", null, "", null, "", null, "", null, "", null, null, "", "", null, "", "", "", "", "", "", "", "", "", "", "", "", ""]
["CDISCPILOT01", "701", "1442", "Y", "E03", "APPLICATION SITE PRURITUS", "APPLICATION SITE ITCHING", null, "APPLICATION SITE PRURITUS", null, "HLT_0317", null, "HLGT_0338", null, "GENERAL DISORDERS AND ADMINISTRATION SITE CONDITIONS", null, 1, "No", "", 4, "NOT RECOVERED/NOT RESOLVED", "N", "N", "N", "N", "", "N", "N", "N", "18-JAN-2014", "10-JAN-2014", "", "Y"]
["CDISCPILOT01", "701", "1444", "Y", "E11", "APPLICATION SITE ERYTHEMA", "APPLICATION SITE ERYTHEMA", null, "APPLICATION SITE ERYTHEMA", null, "HLT_0617", null, "HLGT_0152", null, "GENERAL DISORDERS AND ADMINISTRATION SITE CONDITIONS", null, 1, "No", "", 3, "NOT RECOVERED/NOT RESOLVED", "N", "N", "N", "N", "", "N", "N", "N", "31-JAN-2013", "19-JAN-2013", "", "Y"]
["CDISCPILOT01", "701", "1444", "Y", "E11", "APPLICATION SITE ERYTHEMA", "APPLICATION SITE ERYTHEMA", null, "APPLICATION SITE ERYTHEMA", null, "HLT_0617", null, "HLGT_0152", null, "GENERAL DISORDERS AND ADMINISTRATION SITE CONDITIONS", null, 2, "No", "", 3, "NOT RECOVERED/NOT RESOLVED", "N", "N", "N", "N", "", "N", "N", "N", "13-FEB-2013", "19-JAN-2013", "", "Y"]
["CDISCPILOT01", "701", "1444", "Y", "E12", "APPLICATION SITE PRURITUS", "APPLICATION SITE ITCHING", null, "APPLICATION SITE PRURITUS", null, "HLT_0317", null, "HLGT_0338", null, "GENERAL DISORDERS AND ADMINISTRATION SITE CONDITIONS", null, 1, "No", "", 4, "NOT RECOVERED/NOT RESOLVED", "N", "N", "N", "N", "", "N", "N", "N", "31-JAN-2013", "19-JAN-2013", "", "Y"]
["CDISCPILOT01", "701", "1444", "Y", "E12", "APPLICATION SITE PRURITUS", "APPLICATION SITE ITCHING", null, "APPLICATION SITE PRURITUS", null, "HLT_0317", null, "HLGT_0338", null, "GENERAL DISORDERS AND ADMINISTRATION SITE CONDITIONS", null, 2, "No", "", 4, "NOT RECOVERED/NOT RESOLVED", "N", "N", "N", "N", "", "N", "N", "N", "13-FEB-2013", "19-JAN-2013", "", "Y"]
["CDISCPILOT01", "701", "1444", "Y", "E13", "SALIVARY HYPERSECRETION", "HYPERSALIVATION", null, "SALIVARY HYPERSECRETION", null, "HLT_0374", null, "HLGT_0488", null, "GASTROINTESTINAL DISORDERS", null, 1, "No", "", 3, "NOT RECOVERED/NOT RESOLVED", "N", "N", "N", "N", "", "N", "N", "N", "31-JAN-2013", "19-JAN-2013", "", "Y"]
["CDISCPILOT01", "701", "1444", "Y", "E14", "PARAESTHESIA", "TINGLING", null, "PARAESTHESIA", null, "HLT_0481", null, "HLGT_0534", null, "NERVOUS SYSTEM DISORDERS", null, 1, "No", "", 1, "RECOVERED/RESOLVED", "N", "N", "N", "N", "", "N", "N", "N", "13-FEB-2013", "08-FEB-2013", "08-FEB-2013", "N"]
["CDISCPILOT01", "701", "1444", "Y", "E15", "APPLICATION SITE IRRITATION", "APPLICATION SITE BURNING", null, "APPLICATION SITE IRRITATION", null, "HLT_0061", null, "HLGT_0346", null, "GENERAL DISORDERS AND ADMINISTRATION SITE CONDITIONS", null, 2, "No", "", 4, "NOT RECOVERED/NOT RESOLVED", "N", "N", "N", "N", "", "N", "N", "N", "13-FEB-2013", "04-FEB-2013", "", "Y"]
["CDISCPILOT01", "701", "1444", "Y", "E16", "APPLICATION SITE VESICLES", "APPLICATION SITE BLISTER", null, "APPLICATION SITE VESICLES", null, "HLT_0180", null, "HLGT_0576", null, "GENERAL DISORDERS AND ADMINISTRATION SITE CONDITIONS", null, 2, "No", "", 4, "NOT RECOVERED/NOT RESOLVED", "N", "N", "N", "N", "", "N", "N", "N", "13-FEB-2013", "04-FEB-2013", "", "Y"]
["CDISCPILOT01", "702", "1082", "Y", "E02", "WHITE BLOOD CELL COUNT INCREASED", "WBC INCREASED", null, "WHITE BLOOD CELL COUNT INCREASED", null, "HLT_0417", null, "HLGT_0465", null, "INVESTIGATIONS", null, 1, "No", "", 1, "NOT RECOVERED/NOT RESOLVED", "N", "N", "N", "N", "", "N", "N", "N", "24-JUL-2013", "07-JUL-2013", "26-JUL-2013", "N"]
["CDISCPILOT01", "702", "1082", "Y", "E02", "WHITE BLOOD CELL COUNT INCREASED", "WBC INCREASED", null, "WHITE BLOOD CELL COUNT INCREASED", null, "HLT_0417", null, "HLGT_0465", null, "INVESTIGATIONS", null, 1, "No", "", 1, "RECOVERED/RESOLVED", "N", "N", "N", "N", "", "N", "N", "N", "08-AUG-2013", "07-JUL-2013", "26-JUL-2013", "N"]
["CDISCPILOT01", "702", "1082", "Y", "E03", "NEUTROPHIL COUNT INCREASED", "NEUTROPHIL COUNT INCREASED", null, "NEUTROPHIL COUNT INCREASED", null, "HLT_0326", null, "HLGT_0625", null, "INVESTIGATIONS", null, 1, "No", "", 1, "NOT RECOVERED/NOT RESOLVED", "N", "N", "N", "N", "", "N", "N", "N", "24-JUL-2013", "07-JUL-2013", "26-JUL-2013", "N"]
["CDISCPILOT01", "702", "1082", "Y", "E03", "NEUTROPHIL COUNT INCREASED", "NEUTROPHIL COUNT INCREASED", null, "NEUTROPHIL COUNT INCREASED", null, "HLT_0326", null, "HLGT_0625", null, "INVESTIGATIONS", null, 1, "No", "", 1, "RECOVERED/RESOLVED", "N", "N", "N", "N", "", "N", "N", "N", "08-AUG-2013", "07-JUL-2013", "26-JUL-2013", "N"]
["CDISCPILOT01", "702", "1082", "Y", "E04", "URINE ANALYSIS ABNORMAL", "URINE ANALYSIS ABNORMAL", null, "URINE ANALYSIS ABNORMAL", null, "HLT_0783", null, "HLGT_0295", null, "INVESTIGATIONS", null, 1, "No", "", 1, "NOT RECOVERED/NOT RESOLVED", "N", "N", "N", "N", "", "N", "N", "N", "24-JUL-2013", "07-JUL-2013", "24-JUL-2013", "N"]
["CDISCPILOT01", "702", "1082", "Y", "E04", "URINE ANALYSIS ABNORMAL", "URINE ANALYSIS ABNORMAL", null, "URINE ANALYSIS ABNORMAL", null, "HLT_0783", null, "HLGT_0295", null, "INVESTIGATIONS", null, 1, "No", "", 1, "RECOVERED/RESOLVED", "N", "N", "N", "N", "", "N", "N", "N", "26-JUL-2013", "07-JUL-2013", "24-JUL-2013", "N"]
["CDISCPILOT01", "702", "1082", "Y", "E06", "RECTAL HAEMORRHAGE", "RECTAL BLEEDING", null, "RECTAL HAEMORRHAGE", null, "HLT_0353", null, "HLGT_0755", null, "GASTROINTESTINAL DISORDERS", null, 1, "No", "", 1, "NOT RECOVERED/NOT RESOLVED", "N", "N", "N", "N", "", "N", "N", "N", "06-SEP-2013", "02-SEP-2013", "06-SEP-2013", "N"]
["CDISCPILOT01", "702", "1082", "Y", "E06", "RECTAL HAEMORRHAGE", "RECTAL BLEEDING", null, "RECTAL HAEMORRHAGE", null, "HLT_0353", null, "HLGT_0755", null, "GASTROINTESTINAL DISORDERS", null, 1, "No", "", 1, "RECOVERED/RESOLVED", "N", "N", "N", "N", "", "N", "N", "N", "28-SEP-2013", "02-SEP-2013", "06-SEP-2013", "N"]
["CDISCPILOT01", "702", "1082", "Y", "E07", "APPLICATION SITE IRRITATION", "APPLICATION SITE IRRITATION", null, "APPLICATION SITE IRRITATION", null, "HLT_0061", null, "HLGT_0346", null, "GENERAL DISORDERS AND ADMINISTRATION SITE CONDITIONS", null, 1, "No", "", 4, "RECOVERED/RESOLVED", "N", "N", "N", "N", "", "N", "N", "N", "28-SEP-2013", "09-SEP-2013", "24-SEP-2013", "N"]
["CDISCPILOT01", "702", "1082", "Y", "E08", "SKIN IRRITATION", "SKIN IRRITATION", null, "SKIN IRRITATION", null, "HLT_0583", null, "HLGT_0384", null, "SKIN AND SUBCUTANEOUS TISSUE DISORDERS", null, 2, "No", "", 4, "RECOVERED/RESOLVED", "N", "N", "N", "N", "", "N", "N", "N", "17-NOV-2013", "12-OCT-2013", "31-OCT-2013", "N"]
["CDISCPILOT01", "703", "1042", "Y", "E04", "DIARRHOEA", "DIARRHEA", null, "DIARRHOEA", null, "HLT_0148", null, "HLGT_0588", null, "GASTROINTESTINAL DISORDERS", null, 1, "No", "", 3, "RECOVERED/RESOLVED", "N", "N", "N", "N", "", "N", "N", "N", "14-MAR-2013", "04-MAR-2013", "05-MAR-2013", "N"]
["CDISCPILOT01", "703", "1042", "Y", "E05", "INSOMNIA", "INSOMNIA", null, "INSOMNIA", null, "HLT_0297", null, "HLGT_0469", null, "PSYCHIATRIC DISORDERS", null, 1, "No", "", 2, "RECOVERED/RESOLVED", "N", "N", "N", "N", "", "N", "N", "N", "14-MAR-2013", "05-MAR-2013", "06-MAR-2013", "N"]
["CDISCPILOT01", "703", "1076", "Y", "E01", "BENIGN PROSTATIC HYPERPLASIA", "BENIGN PROSTATIC HYPERTROPHY", null, "BENIGN PROSTATIC HYPERPLASIA", null, "HLT_0215", null, "HLGT_0568", null, "REPRODUCTIVE SYSTEM AND BREAST DISORDERS", null, 2, "No", "", 1, "NOT RECOVERED/NOT RESOLVED", "N", "N", "N", "N", "", "N", "N", "N", "20-NOV-2013", "20-NOV-2013", "", "Y"]
["CDISCPILOT01", "703", "1076", "Y", "E02", "BIOPSY PROSTATE", "BIOPSY OF PROSTATE", null, "BIOPSY PROSTATE", null, "HLT_0553", null, "HLGT_0725", null, "INVESTIGATIONS", null, 2, "No", "", 1, "RECOVERED/RESOLVED", "N", "N", "N", "N", "", "N", "N", "N", "20-NOV-2013", "16-NOV-2013", "16-NOV-2013", "N"]
["CDISCPILOT01", "703", "1076", "Y", "E05", "HYPERCHOLESTEROLAEMIA", "HYPERCHOLESTEROLEMIA", null, "HYPERCHOLESTEROLAEMIA", null, "HLT_0025", null, "HLGT_0703", null, "METABOLISM AND NUTRITION DISORDERS", null, 2, "No", "", 1, "NOT RECOVERED/NOT RESOLVED", "N", "N", "N", "N", "", "N", "N", "N", "04-DEC-2013", "2007", "", "Y"]
["CDISCPILOT01", "703", "1076", "Y", "E07", "HYPERHIDROSIS", "SWEATING", null, "HYPERHIDROSIS", null, "HLT_0587", null, "HLGT_0005", null, "SKIN AND SUBCUTANEOUS TISSUE DISORDERS", null, 1, "No", "", 3, "NOT RECOVERED/NOT RESOLVED", "N", "N", "N", "N", "", "N", "N", "N", "04-DEC-2013", "25-NOV-2013", "", "Y"]
["CDISCPILOT01", "703", "1076", "Y", "E08", "APPLICATION SITE PRURITUS", "APPLICATION SITE ITCHING", null, "APPLICATION SITE PRURITUS", null, "HLT_0317", null, "HLGT_0338", null, "GENERAL DISORDERS AND ADMINISTRATION SITE CONDITIONS", null, 1, "No", "", 4, "NOT RECOVERED/NOT RESOLVED", "N", "N", "N", "N", "", "N", "N", "N", "04-DEC-2013", "23-NOV-2013", "", "Y"]
["CDISCPILOT01", "703", "1076", "Y", "E08", "APPLICATION SITE PRURITUS", "APPLICATION SITE ITCHING", null, "APPLICATION SITE PRURITUS", null, "HLT_0317", null, "HLGT_0338", null, "GENERAL DISORDERS AND ADMINISTRATION SITE CONDITIONS", null, 2, "No", "", 4, "NOT RECOVERED/NOT RESOLVED", "N", "N", "N", "N", "", "N", "N", "N", "17-DEC-2013", "23-NOV-2013", "", "Y"]
["CDISCPILOT01", "703", "1076", "Y", "E09", "APPLICATION SITE DERMATITIS", "APPLICATION SITE RASH", null, "APPLICATION SITE DERMATITIS", null, "HLT_0343", null, "HLGT_0241", null, "GENERAL DISORDERS AND ADMINISTRATION SITE CONDITIONS", null, 1, "No", "", 4, "NOT RECOVERED/NOT RESOLVED", "N", "N", "N", "N", "", "N", "N", "N", "04-DEC-2013", "23-NOV-2013", "", "Y"]
["CDISCPILOT01", "703", "1086", "Y", "E01", "APPLICATION SITE IRRITATION", "APPLICATION SITE IRRITATION", null, "APPLICATION SITE IRRITATION", null, "HLT_0061", null, "HLGT_0346", null, "GENERAL DISORDERS AND ADMINISTRATION SITE CONDITIONS", null, 1, "No", "", 4, "NOT RECOVERED/NOT RESOLVED", "N", "N", "N", "N", "", "N", "N", "N", "16-SEP-2012", "13-SEP-2012", "02-JAN-2013", "N"]
["CDISCPILOT01", "703", "1086", "Y", "E01", "APPLICATION SITE IRRITATION", "APPLICATION SITE IRRITATION", null, "APPLICATION SITE IRRITATION", null, "HLT_0061", null, "HLGT_0346", null, "GENERAL DISORDERS AND ADMINISTRATION SITE CONDITIONS", null, 2, "No", "", 4, "NOT RECOVERED/NOT RESOLVED", "N", "N", "N", "N", "", "N", "N", "N", "30-SEP-2012", "13-SEP-2012", "02-JAN-2013", "N"]
["CDISCPILOT01", "703", "1086", "Y", "E01", "APPLICATION SITE IRRITATION", "APPLICATION SITE IRRITATION", null, "APPLICATION SITE IRRITATION", null, "HLT_0061", null, "HLGT_0346", null, "GENERAL DISORDERS AND ADMINISTRATION SITE CONDITIONS", null, 3, "No", "", 4, "NOT RECOVERED/NOT RESOLVED", "N", "N", "N", "N", "", "N", "N", "N", "13-OCT-2012", "13-SEP-2012", "02-JAN-2013", "N"]
["CDISCPILOT01", "703", "1086", "Y", "E01", "APPLICATION SITE IRRITATION", "APPLICATION SITE IRRITATION", null, "APPLICATION SITE IRRITATION", null, "HLT_0061", null, "HLGT_0346", null, "GENERAL DISORDERS AND ADMINISTRATION SITE CONDITIONS", null, 1, "No", "", 4, "RECOVERED/RESOLVED", "N", "N", "N", "N", "", "N", "N", "N", "26-MAR-2013", "13-SEP-2012", "02-JAN-2013", "N"]
["CDISCPILOT01", "703", "1086", "Y", "E02", "CHILLS", "CHILLS", null, "CHILLS", null, "HLT_0586", null, "HLGT_0161", null, "GENERAL DISORDERS AND ADMINISTRATION SITE CONDITIONS", null, 1, "No", "", 3, "NOT RECOVERED/NOT RESOLVED", "N", "N", "N", "N", "", "N", "N", "N", "13-OCT-2012", "09-OCT-2012", "15-OCT-2012", "N"]
["CDISCPILOT01", "703", "1086", "Y", "E02", "CHILLS", "CHILLS", null, "CHILLS", null, "HLT_0586", null, "HLGT_0161", null, "GENERAL DISORDERS AND ADMINISTRATION SITE CONDITIONS", null, 1, "No", "", 3, "RECOVERED/RESOLVED", "N", "N", "N", "N", "", "N", "N", "N", "27-OCT-2012", "09-OCT-2012", "15-OCT-2012", "N"]
["CDISCPILOT01", "703", "1096", "N", "", "", "", null, "", null, "", null, "", null, "", null, null, "", "", null, "", "", "", "", "", "", "", "", "", "", "", "", ""]
["CDISCPILOT01", "703", "1100", "Y", "E04", "APPLICATION SITE IRRITATION", "APPLICATION SITE IRRITATION", null, "APPLICATION SITE IRRITATION", null, "HLT_0061", null, "HLGT_0346", null, "GENERAL DISORDERS AND ADMINISTRATION SITE CONDITIONS", null, 2, "No", "", 4, "NOT RECOVERED/NOT RESOLVED", "N", "N", "N", "N", "", "N", "N", "N", "12-APR-2013", "05-APR-2013", "16-APR-2013", "N"]
["CDISCPILOT01", "703", "1100", "Y", "E04", "APPLICATION SITE IRRITATION", "APPLICATION SITE IRRITATION", null, "APPLICATION SITE IRRITATION", null, "HLT_0061", null, "HLGT_0346", null, "GENERAL DISORDERS AND ADMINISTRATION SITE CONDITIONS", null, 1, "No", "", 4, "NOT RECOVERED/NOT RESOLVED", "N", "N", "N", "N", "", "N", "N", "N", "14-APR-2013", "05-APR-2013", "16-APR-2013", "N"]
["CDISCPILOT01", "703", "1100", "Y", "E04", "APPLICATION SITE IRRITATION", "APPLICATION SITE IRRITATION", null, "APPLICATION SITE IRRITATION", null, "HLT_0061", null, "HLGT_0346", null, "GENERAL DISORDERS AND ADMINISTRATION SITE CONDITIONS", null, 1, "No", "", 4, "RECOVERED/RESOLVED", "N", "N", "N", "N", "", "N", "N", "N", "24-APR-2013", "05-APR-2013", "16-APR-2013", "N"]
["CDISCPILOT01", "703", "1100", "Y", "E06", "CATARACT OPERATION", "CATARACT EXTRACTION", null, "CATARACT OPERATION", null, "HLT_0432", null, "HLGT_0058", null, "SURGICAL AND MEDICAL PROCEDURES", null, 2, "No", "", 1, "RECOVERED/RESOLVED", "N", "N", "N", "N", "", "N", "N", "N", "08-MAY-2013", "25-APR-2013", "25-APR-2013", "N"]
["CDISCPILOT01", "703", "1100", "Y", "E07", "OEDEMA PERIPHERAL", "LEG EDEMA", null, "OEDEMA PERIPHERAL", null, "HLT_0661", null, "HLGT_0137", null, "GENERAL DISORDERS AND ADMINISTRATION SITE CONDITIONS", null, 2, "No", "", 2, "NOT RECOVERED/NOT RESOLVED", "N", "N", "N", "N", "", "N", "N", "N", "31-JUL-2013", "28-FEB-2013", "14-SEP-2013", "N"]
["CDISCPILOT01", "703", "1100", "Y", "E07", "OEDEMA PERIPHERAL", "LEG EDEMA", null, "OEDEMA PERIPHERAL", null, "HLT_0661", null, "HLGT_0137", null, "GENERAL DISORDERS AND ADMINISTRATION SITE CONDITIONS", null, 2, "No", "", 2, "RECOVERED/RESOLVED", "N", "N", "N", "N", "", "N", "N", "N", "14-SEP-2013", "28-FEB-2013", "14-SEP-2013", "N"]
["CDISCPILOT01", "703", "1100", "Y", "E08", "UPPER RESPIRATORY TRACT INFECTION", "UPPER RESPIRATORY INFECTION", null, "UPPER RESPIRATORY TRACT INFECTION", null, "HLT_0520", null, "HLGT_0489", null, "INFECTIONS AND INFESTATIONS", null, 2, "No", "", 2, "RECOVERED/RESOLVED", "N", "N", "N", "N", "", "N", "N", "N", "05-JUN-2013", "27-MAY-2013", "03-JUN-2013", "N"]
["CDISCPILOT01", "703", "1100", "Y", "E09", "OEDEMA PERIPHERAL", "LEG EDEMA", null, "OEDEMA PERIPHERAL", null, "HLT_0661", null, "HLGT_0137", null, "GENERAL DISORDERS AND ADMINISTRATION SITE CONDITIONS", null, 1, "No", "", 2, "NOT RECOVERED/NOT RESOLVED", "N", "N", "N", "N", "", "N", "N", "N", "31-JUL-2013", "17-JUL-2013", "14-SEP-2013", "N"]
["CDISCPILOT01", "703", "1100", "Y", "E09", "OEDEMA PERIPHERAL", "LEG EDEMA", null, "OEDEMA PERIPHERAL", null, "HLT_0661", null, "HLGT_0137", null, "GENERAL DISORDERS AND ADMINISTRATION SITE CONDITIONS", null, 1, "No", "", 2, "RECOVERED/RESOLVED", "N", "N", "N", "N", "", "N", "N", "N", "14-SEP-2013", "17-JUL-2013", "14-SEP-2013", "N"]
["CDISCPILOT01", "703", "1119", "Y", "E04", "APPLICATION SITE IRRITATION", "APPLICATION SITE IRRITATION", null, "APPLICATION SITE IRRITATION", null, "HLT_0061", null, "HLGT_0346", null, "GENERAL DISORDERS AND ADMINISTRATION SITE CONDITIONS", null, 2, "No", "", 4, "NOT RECOVERED/NOT RESOLVED", "N", "N", "N", "N", "", "N", "N", "N", "21-MAR-2013", "16-MAR-2013", "", "Y"]
["CDISCPILOT01", "703", "1119", "Y", "E04", "APPLICATION SITE IRRITATION", "APPLICATION SITE IRRITATION", null, "APPLICATION SITE IRRITATION", null, "HLT_0061", null, "HLGT_0346", null, "GENERAL DISORDERS AND ADMINISTRATION SITE CONDITIONS", null, 3, "No", "", 4, "NOT RECOVERED/NOT RESOLVED", "N", "N", "N", "N", "", "N", "N", "N", "17-MAY-2013", "16-MAR-2013", "", "Y"]
["CDISCPILOT01", "703", "1119", "Y", "E05", "PRURITUS", "ITCHING", null, "PRURITUS", null, "HLT_0778", null, "HLGT_0695", null, "SKIN AND SUBCUTANEOUS TISSUE DISORDERS", null, 2, "No", "", 4, "NOT RECOVERED/NOT RESOLVED", "N", "N", "N", "N", "", "N", "N", "N", "17-MAY-2013", "04-MAY-2013", "", "Y"]
["CDISCPILOT01", "703", "1119", "Y", "E05", "PRURITUS", "ITCHING", null, "PRURITUS", null, "HLT_0778", null, "HLGT_0695", null, "SKIN AND SUBCUTANEOUS TISSUE DISORDERS", null, 3, "No", "", 4, "NOT RECOVERED/NOT RESOLVED", "N", "N", "N", "N", "", "N", "N", "N", "13-JUN-2013", "04-MAY-2013", "", "Y"]
["CDISCPILOT01", "703", "1175", "Y", "E01", "ATRIOVENTRICULAR BLOCK SECOND DEGREE", "HEART BLOCK SECOND DEGREE", null, "ATRIOVENTRICULAR BLOCK SECOND DEGREE", null, "HLT_0415", null, "HLGT_0086", null, "CARDIAC DISORDERS", null, 3, "No", "", 1, "NOT RECOVERED/NOT RESOLVED", "N", "N", "N", "N", "", "N", "N", "N", "18-DEC-2013", "18-DEC-2013", "", "Y"]
["CDISCPILOT01", "703", "1182", "Y", "E05", "APPLICATION SITE ERYTHEMA", "APPLICATION SITE REDNESS", null, "APPLICATION SITE ERYTHEMA", null, "HLT_0617", null, "HLGT_0152", null, "GENERAL DISORDERS AND ADMINISTRATION SITE CONDITIONS", null, 1, "No", "", 3, "NOT RECOVERED/NOT RESOLVED", "N", "N", "N", "N", "", "N", "N", "N", "31-OCT-2013", "31-OCT-2013", "", "Y"]
["CDISCPILOT01", "703", "1182", "Y", "E05", "APPLICATION SITE ERYTHEMA", "APPLICATION SITE REDNESS", null, "APPLICATION SITE ERYTHEMA", null, "HLT_0617", null, "HLGT_0152", null, "GENERAL DISORDERS AND ADMINISTRATION SITE CONDITIONS", null, 2, "No", "", 3, "NOT RECOVERED/NOT RESOLVED", "N", "N", "N", "N", "", "N", "N", "N", "28-NOV-2013", "31-OCT-2013", "", "Y"]
["CDISCPILOT01", "703", "1182", "Y", "E07", "SOMNOLENCE", "DROWSINESS", null, "SOMNOLENCE", null, "HLT_0160", null, "HLGT_0254", null, "NERVOUS SYSTEM DISORDERS", null, 1, "No", "", 2, "NOT RECOVERED/NOT RESOLVED", "N", "N", "N", "N", "", "N", "N", "N", "28-NOV-2013", "22-NOV-2013", "", "Y"]
["CDISCPILOT01", "703", "1182", "Y", "E07", "SOMNOLENCE", "DROWSINESS", null, "SOMNOLENCE", null, "HLT_0160", null, "HLGT_0254", null, "NERVOUS SYSTEM DISORDERS", null, 2, "No", "", 2, "NOT RECOVERED/NOT RESOLVED", "N", "N", "N", "N", "", "N", "N", "N", "12-DEC-2013", "22-NOV-2013", "", "Y"]
["CDISCPILOT01", "703", "1197", "N", "", "", "", null, "", null, "", null, "", null, "", null, null, "", "", null, "", "", "", "", "", "", "", "", "", "", "", "", ""]
["CDISCPILOT01", "703", "1210", "Y", "E01", "DISORIENTATION", "DISORIENTATION", null, "DISORIENTATION", null, "HLT_0299", null, "HLGT_0307", null, "PSYCHIATRIC DISORDERS", null, 1, "No", "", 2, "NOT RECOVERED/NOT RESOLVED", "N", "N", "N", "N", "", "N", "N", "N", "12-APR-2013", "02-APR-2013", "", "Y"]
["CDISCPILOT01", "703", "1210", "Y", "E04", "DECREASED APPETITE", "DECREASED APPETITE", null, "DECREASED APPETITE", null, "HLT_0574", null, "HLGT_0231", null, "METABOLISM AND NUTRITION DISORDERS", null, 1, "No", "", 3, "NOT RECOVERED/NOT RESOLVED", "N", "N", "N", "N", "", "N", "N", "N", "10-MAY-2013", "04-MAY-2013", "", "Y"]
["CDISCPILOT01", "703", "1210", "Y", "E04", "DECREASED APPETITE", "DECREASED APPETITE", null, "DECREASED APPETITE", null, "HLT_0574", null, "HLGT_0231", null, "METABOLISM AND NUTRITION DISORDERS", null, 2, "No", "", 3, "NOT RECOVERED/NOT RESOLVED", "N", "N", "N", "N", "", "N", "N", "N", "24-AUG-2013", "04-MAY-2013", "", "Y"]
["CDISCPILOT01", "703", "1258", "Y", "E06", "DIZZINESS", "DIZZINESS", null, "DIZZINESS", null, "HLT_0619", null, "HLGT_0751", null, "NERVOUS SYSTEM DISORDERS", null, 2, "No", "", 1, "NOT RECOVERED/NOT RESOLVED", "N", "N", "N", "N", "", "N", "N", "N", "04-SEP-2012", "2001", "", "Y"]
["CDISCPILOT01", "703", "1258", "Y", "E06", "DIZZINESS", "DIZZINESS", null, "DIZZINESS", null, "HLT_0619", null, "HLGT_0751", null, "NERVOUS SYSTEM DISORDERS", null, 1, "No", "", 1, "NOT RECOVERED/NOT RESOLVED", "N", "N", "N", "N", "", "N", "N", "N", "14-SEP-2012", "2001", "", "Y"]
["CDISCPILOT01", "703", "1258", "Y", "E07", "UPPER RESPIRATORY TRACT INFECTION", "UPPER RESPIRATORY INFECTION", null, "UPPER RESPIRATORY TRACT INFECTION", null, "HLT_0520", null, "HLGT_0489", null, "INFECTIONS AND INFESTATIONS", null, 1, "No", "", 1, "NOT RECOVERED/NOT RESOLVED", "N", "N", "N", "N", "", "N", "N", "N", "17-AUG-2012", "11-AUG-2012", "19-AUG-2012", "N"]
["CDISCPILOT01", "703", "1258", "Y", "E07", "UPPER RESPIRATORY TRACT INFECTION", "UPPER RESPIRATORY INFECTION", null, "UPPER RESPIRATORY TRACT INFECTION", null, "HLT_0520", null, "HLGT_0489", null, "INFECTIONS AND INFESTATIONS", null, 1, "No", "", 1, "RECOVERED/RESOLVED", "N", "N", "N", "N", "", "N", "N", "N", "04-SEP-2012", "11-AUG-2012", "19-AUG-2012", "N"]
["CDISCPILOT01", "703", "1258", "Y", "E08", "APPLICATION SITE DERMATITIS", "APPLICATION SITE RASH", null, "APPLICATION SITE DERMATITIS", null, "HLT_0343", null, "HLGT_0241", null, "GENERAL DISORDERS AND ADMINISTRATION SITE CONDITIONS", null, 1, "No", "", 4, "NOT RECOVERED/NOT RESOLVED", "N", "N", "N", "N", "", "N", "N", "N", "04-SEP-2012", "04-SEP-2012", "25-JAN-2013", "N"]
["CDISCPILOT01", "703", "1258", "Y", "E08", "APPLICATION SITE DERMATITIS", "APPLICATION SITE RASH", null, "APPLICATION SITE DERMATITIS", null, "HLT_0343", null, "HLGT_0241", null, "GENERAL DISORDERS AND ADMINISTRATION SITE CONDITIONS", null, 2, "No", "", 4, "NOT RECOVERED/NOT RESOLVED", "N", "N", "N", "N", "", "N", "N", "N", "14-SEP-2012", "04-SEP-2012", "25-JAN-2013", "N"]
["CDISCPILOT01", "703", "1258", "Y", "E08", "APPLICATION SITE DERMATITIS", "APPLICATION SITE RASH", null, "APPLICATION SITE DERMATITIS", null, "HLT_0343", null, "HLGT_0241", null, "GENERAL DISORDERS AND ADMINISTRATION SITE CONDITIONS", null, 1, "No", "", 4, "RECOVERED/RESOLVED", "N", "N", "N", "N", "", "N", "N", "N", "28-JAN-2013", "04-SEP-2012", "25-JAN-2013", "N"]
["CDISCPILOT01", "703", "1279", "N", "", "", "", null, "", null, "", null, "", null, "", null, null, "", "", null, "", "", "", "", "", "", "", "", "", "", "", "", ""]
["CDISCPILOT01", "703", "1295", "Y", "E06", "ARTHRITIS", "ARTHRITIS", null, "ARTHRITIS", null, "HLT_0019", null, "HLGT_0587", null, "MUSCULOSKELETAL AND CONNECTIVE TISSUE DISORDERS", null, 2, "No", "", 1, "NOT RECOVERED/NOT RESOLVED", "N", "N", "N", "N", "", "N", "N", "N", "01-JAN-2014", "28-DEC-2013", "", "Y"]
["CDISCPILOT01", "703", "1299", "Y", "E01", "GLAUCOMA", "GLAUCOMA", null, "GLAUCOMA", null, "HLT_0556", null, "HLGT_0734", null, "EYE DISORDERS", null, 2, "No", "", 1, "NOT RECOVERED/NOT RESOLVED", "N", "N", "N", "N", "", "N", "N", "N", "01-MAR-2013", "1992", "", "Y"]
["CDISCPILOT01", "703", "1299", "Y", "E02", "UPPER RESPIRATORY TRACT INFECTION", "UPPER RESPIRATORY INFECTION", null, "UPPER RESPIRATORY TRACT INFECTION", null, "HLT_0520", null, "HLGT_0489", null, "INFECTIONS AND INFESTATIONS", null, 1, "No", "", 1, "NOT RECOVERED/NOT RESOLVED", "N", "N", "N", "N", "", "N", "N", "N", "28-SEP-2012", "27-SEP-2012", "06-OCT-2012", "N"]
["CDISCPILOT01", "703", "1299", "Y", "E02", "UPPER RESPIRATORY TRACT INFECTION", "UPPER RESPIRATORY INFECTION", null, "UPPER RESPIRATORY TRACT INFECTION", null, "HLT_0520", null, "HLGT_0489", null, "INFECTIONS AND INFESTATIONS", null, 1, "No", "", 1, "RECOVERED/RESOLVED", "N", "N", "N", "N", "", "N", "N", "N", "10-OCT-2012", "27-SEP-2012", "06-OCT-2012", "N"]
["CDISCPILOT01", "703", "1299", "Y", "E05", "HYPOTENSION", "HYPOTENSION", null, "HYPOTENSION", null, "HLT_0761", null, "HLGT_0412", null, "VASCULAR DISORDERS", null, 1, "No", "", 2, "NOT RECOVERED/NOT RESOLVED", "N", "N", "N", "N", "", "N", "N", "N", "01-MAR-2013", "01-MAR-2013", "", "Y"]
["CDISCPILOT01", "703", "1299", "Y", "E05", "HYPOTENSION", "HYPOTENSION", null, "HYPOTENSION", null, "HLT_0761", null, "HLGT_0412", null, "VASCULAR DISORDERS", null, 2, "No", "", 2, "NOT RECOVERED/NOT RESOLVED", "N", "N", "N", "N", "", "N", "N", "N", "13-MAR-2013", "01-MAR-2013", "", "Y"]
["CDISCPILOT01", "703", "1299", "Y", "E06", "TACHYCARDIA", "TACHYCARDIA", null, "TACHYCARDIA", null, "HLT_0082", null, "HLGT_0574", null, "CARDIAC DISORDERS", null, 1, "No", "", 2, "NOT RECOVERED/NOT RESOLVED", "N", "N", "N", "N", "", "N", "N", "N", "01-MAR-2013", "01-MAR-2013", "", "Y"]
["CDISCPILOT01", "703", "1299", "Y", "E06", "TACHYCARDIA", "TACHYCARDIA", null, "TACHYCARDIA", null, "HLT_0082", null, "HLGT_0574", null, "CARDIAC DISORDERS", null, 2, "No", "", 2, "NOT RECOVERED/NOT RESOLVED", "N", "N", "N", "N", "", "N", "N", "N", "13-MAR-2013", "01-MAR-2013", "", "Y"]
["CDISCPILOT01", "703", "1299", "Y", "E07", "MYOCARDIAL INFARCTION", "MYOCARDIAL INFARCTION", null, "MYOCARDIAL INFARCTION", null, "HLT_0649", null, "HLGT_0688", null, "CARDIAC DISORDERS", null, 2, "No", "", 2, "NOT RECOVERED/NOT RESOLVED", "N", "N", "N", "N", "", "N", "N", "N", "13-MAR-2013", "13-MAR-2013", "", "Y"]
["CDISCPILOT01", "703", "1335", "Y", "E01", "ATRIOVENTRICULAR BLOCK SECOND DEGREE", "AV BLOCK SECOND DEGREE", null, "ATRIOVENTRICULAR BLOCK SECOND DEGREE", null, "HLT_0415", null, "HLGT_0086", null, "CARDIAC DISORDERS", null, 1, "No", "", 1, "NOT RECOVERED/NOT RESOLVED", "N", "N", "N", "N", "", "N", "N", "N", "15-MAR-2014", "15-MAR-2014", "30-MAR-2014", "N"]
["CDISCPILOT01", "703", "1335", "Y", "E01", "ATRIOVENTRICULAR BLOCK SECOND DEGREE", "AV BLOCK SECOND DEGREE", null, "ATRIOVENTRICULAR BLOCK SECOND DEGREE", null, "HLT_0415", null, "HLGT_0086", null, "CARDIAC DISORDERS", null, 1, "No", "", 1, "RECOVERED/RESOLVED", "N", "N", "N", "N", "", "N", "N", "N", "31-MAR-2014", "15-MAR-2014", "30-MAR-2014", "N"]
["CDISCPILOT01", "703", "1379", "N", "", "", "", null, "", null, "", null, "", null, "", null, null, "", "", null, "", "", "", "", "", "", "", "", "", "", "", "", ""]
["CDISCPILOT01", "703", "1396", "N", "", "", "", null, "", null, "", null, "", null, "", null, null, "", "", null, "", "", "", "", "", "", "", "", "", "", "", "", ""]
["CDISCPILOT01", "703", "1403", "Y", "E01", "DIARRHOEA", "DIARRHEA", null, "DIARRHOEA", null, "HLT_0148", null, "HLGT_0588", null, "GASTROINTESTINAL DISORDERS", null, 2, "No", "", 4, "RECOVERED/RESOLVED", "N", "N", "N", "N", "", "N", "N", "N", "19-DEC-2012", "13-DEC-2012", "14-DEC-2012", "N"]
["CDISCPILOT01", "703", "1403", "Y", "E02", "VOMITING", "VOMITING", null, "VOMITING", null, "HLT_0016", null, "HLGT_0350", null, "GASTROINTESTINAL DISORDERS", null, 2, "No", "", 4, "RECOVERED/RESOLVED", "N", "N", "N", "N", "", "N", "N", "N", "19-DEC-2012", "13-DEC-2012", "14-DEC-2012", "N"]
["CDISCPILOT01", "703", "1403", "Y", "E03", "CHEST DISCOMFORT", "CHEST TIGHTNESS", null, "CHEST DISCOMFORT", null, "HLT_0593", null, "HLGT_0441", null, "GENERAL DISORDERS AND ADMINISTRATION SITE CONDITIONS", null, 1, "No", "", 4, "RECOVERED/RESOLVED", "N", "N", "N", "N", "", "N", "N", "N", "19-DEC-2012", "15-DEC-2012", "16-DEC-2012", "N"]
["CDISCPILOT01", "703", "1403", "Y", "E07", "WEIGHT DECREASED", "WEIGHT LOSS", null, "WEIGHT DECREASED", null, "HLT_0158", null, "HLGT_0778", null, "INVESTIGATIONS", null, 2, "No", "", 1, "NOT RECOVERED/NOT RESOLVED", "N", "N", "N", "N", "", "N", "N", "N", "19-DEC-2012", "12-DEC-2012", "19-DEC-2012", "N"]
["CDISCPILOT01", "703", "1403", "Y", "E07", "WEIGHT DECREASED", "WEIGHT LOSS", null, "WEIGHT DECREASED", null, "HLT_0158", null, "HLGT_0778", null, "INVESTIGATIONS", null, 2, "No", "", 1, "RECOVERED/RESOLVED", "N", "N", "N", "N", "", "N", "N", "N", "08-JAN-2013", "12-DEC-2012", "19-DEC-2012", "N"]
["CDISCPILOT01", "703", "1439", "Y", "E01", "APPLICATION SITE IRRITATION", "APPLICATION SITE IRRITATION", null, "APPLICATION SITE IRRITATION", null, "HLT_0061", null, "HLGT_0346", null, "GENERAL DISORDERS AND ADMINISTRATION SITE CONDITIONS", null, 1, "No", "", 4, "NOT RECOVERED/NOT RESOLVED", "N", "N", "N", "N", "", "N", "N", "N", "05-MAY-2014", "24-APR-2014", "", "Y"]
["CDISCPILOT01", "703", "1439", "Y", "E01", "APPLICATION SITE IRRITATION", "APPLICATION SITE IRRITATION", null, "APPLICATION SITE IRRITATION", null, "HLT_0061", null, "HLGT_0346", null, "GENERAL DISORDERS AND ADMINISTRATION SITE CONDITIONS", null, 2, "No", "", 4, "NOT RECOVERED/NOT RESOLVED", "N", "N", "N", "N", "", "N", "N", "N", "30-JUN-2014", "24-APR-2014", "", "Y"]
["CDISCPILOT01", "704", "1008", "Y", "E03", "HYPERHIDROSIS", "SWEATING INCREASED", null, "HYPERHIDROSIS", null, "HLT_0587", null, "HLGT_0005", null, "SKIN AND SUBCUTANEOUS TISSUE DISORDERS", null, 1, "No", "", 3, "NOT RECOVERED/NOT RESOLVED", "N", "N", "N", "N", "", "N", "N", "N", "09-FEB-2013", "30-JAN-2013", "", "Y"]
["CDISCPILOT01", "704", "1008", "Y", "E05", "SINUS BRADYCARDIA", "SINUS BRADYCARDIA", null, "SINUS BRADYCARDIA", null, "HLT_0644", null, "HLGT_0500", null, "CARDIAC DISORDERS", null, 2, "No", "", 1, "NOT RECOVERED/NOT RESOLVED", "N", "N", "N", "N", "", "N", "N", "N", "25-FEB-2013", "25-FEB-2013", "", "Y"]
["CDISCPILOT01", "704", "1008", "Y", "E06", "TRANSIENT ISCHAEMIC ATTACK", "TRANSIENT ISCHEMIC ATTACKS", null, "TRANSIENT ISCHAEMIC ATTACK", null, "HLT_0041", null, "HLGT_0433", null, "NERVOUS SYSTEM DISORDERS", null, 3, "No", "", 1, "RECOVERED/RESOLVED", "N", "N", "N", "N", "", "Y", "N", "N", "25-FEB-2013", "21-FEB-2013", "21-FEB-2013", "N"]
["CDISCPILOT01", "704", "1009", "Y", "E03", "RASH", "RASH", null, "RASH", null, "HLT_0762", null, "HLGT_0198", null, "SKIN AND SUBCUTANEOUS TISSUE DISORDERS", null, 1, "No", "", 3, "NOT RECOVERED/NOT RESOLVED", "N", "N", "N", "N", "", "N", "N", "N", "14-SEP-2013", "14-SEP-2013", "", "Y"]
["CDISCPILOT01", "704", "1009", "Y", "E07", "DIZZINESS", "DIZZINESS", null, "DIZZINESS", null, "HLT_0619", null, "HLGT_0751", null, "NERVOUS SYSTEM DISORDERS", null, 1, "No", "", 2, "NOT RECOVERED/NOT RESOLVED", "N", "N", "N", "N", "", "N", "N", "N", "02-OCT-2013", "17-SEP-2013", "", "Y"]
["CDISCPILOT01", "704", "1009", "Y", "E08", "NAUSEA", "NAUSEA", null, "NAUSEA", null, "HLT_0742", null, "HLGT_0326", null, "GASTROINTESTINAL DISORDERS", null, 1, "No", "", 3, "RECOVERED/RESOLVED", "N", "N", "N", "N", "", "N", "N", "N", "02-OCT-2013", "22-SEP-2013", "23-SEP-2013", "N"]
["CDISCPILOT01", "704", "1009", "Y", "E09", "FATIGUE", "FATIGUE", null, "FATIGUE", null, "HLT_0043", null, "HLGT_0181", null, "GENERAL DISORDERS AND ADMINISTRATION SITE CONDITIONS", null, 1, "No", "", 2, "NOT RECOVERED/NOT RESOLVED", "N", "N", "N", "N", "", "N", "N", "N", "14-SEP-2013", "05-SEP-2013", "", "Y"]
["CDISCPILOT01", "704", "1009", "Y", "E10", "MALAISE", "MALAISE", null, "MALAISE", null, "HLT_0456", null, "HLGT_0178", null, "GENERAL DISORDERS AND ADMINISTRATION SITE CONDITIONS", null, 1, "No", "", 3, "NOT RECOVERED/NOT RESOLVED", "N", "N", "N", "N", "", "N", "N", "N", "14-SEP-2013", "05-SEP-2013", "27-SEP-2013", "N"]
["CDISCPILOT01", "704", "1009", "Y", "E10", "MALAISE", "MALAISE", null, "MALAISE", null, "HLT_0456", null, "HLGT_0178", null, "GENERAL DISORDERS AND ADMINISTRATION SITE CONDITIONS", null, 1, "No", "", 3, "RECOVERED/RESOLVED", "N", "N", "N", "N", "", "N", "N", "N", "02-OCT-2013", "05-SEP-2013", "27-SEP-2013", "N"]
["CDISCPILOT01", "704", "1010", "Y", "E01", "CYSTITIS", "BLADDER INFECTION", null, "CYSTITIS", null, "HLT_0739", null, "HLGT_0129", null, "INFECTIONS AND INFESTATIONS", null, 1, "No", "", 1, "RECOVERED/RESOLVED", "N", "N", "N", "N", "", "N", "N", "N", "08-MAR-2014", "27-FEB-2014", "06-MAR-2014", "N"]
["CDISCPILOT01", "704", "1010", "Y", "E03", "VOMITING", "VOMITING", null, "VOMITING", null, "HLT_0016", null, "HLGT_0350", null, "GASTROINTESTINAL DISORDERS", null, 1, "No", "", 1, "RECOVERED/RESOLVED", "N", "N", "N", "N", "", "N", "N", "N", "09-JUL-2014", "05-JUL-2014", "06-JUL-2014", "N"]
["CDISCPILOT01", "704", "1010", "Y", "E04", "DIARRHOEA", "DIARRHEA", null, "DIARRHOEA", null, "HLT_0148", null, "HLGT_0588", null, "GASTROINTESTINAL DISORDERS", null, 1, "No", "", 1, "RECOVERED/RESOLVED", "N", "N", "N", "N", "", "N", "N", "N", "09-JUL-2014", "05-JUL-2014", "06-JUL-2014", "N"]
["CDISCPILOT01", "704", "1010", "Y", "E05", "EXCORIATION", "ABRASION NOS", null, "EXCORIATION", null, "HLT_0738", null, "HLGT_0511", null, "INJURY, POISONING AND PROCEDURAL COMPLICATIONS", null, 1, "No", "", 1, "NOT RECOVERED/NOT RESOLVED", "N", "N", "N", "N", "", "N", "N", "N", "09-JUL-2014", "06-JUL-2014", "", "Y"]
["CDISCPILOT01", "704", "1010", "Y", "E06", "SKIN LACERATION", "SKIN TEAR", null, "SKIN LACERATION", null, "HLT_0075", null, "HLGT_0118", null, "INJURY, POISONING AND PROCEDURAL COMPLICATIONS", null, 1, "No", "", 1, "NOT RECOVERED/NOT RESOLVED", "N", "N", "N", "N", "", "N", "N", "N", "09-JUL-2014", "06-JUL-2014", "", "Y"]
["CDISCPILOT01", "704", "1010", "Y", "E07", "ARTHRALGIA", "KNEE PAIN", null, "ARTHRALGIA", null, "HLT_0375", null, "HLGT_0610", null, "MUSCULOSKELETAL AND CONNECTIVE TISSUE DISORDERS", null, 1, "No", "", 1, "NOT RECOVERED/NOT RESOLVED", "N", "N", "N", "N", "", "N", "N", "N", "09-JUL-2014", "06-JUL-2014", "", "Y"]
["CDISCPILOT01", "704", "1010", "Y", "E08", "CONTUSION", "BRUISE OF HEAD", null, "CONTUSION", null, "HLT_0713", null, "HLGT_0381", null, "INJURY, POISONING AND PROCEDURAL COMPLICATIONS", null, 1, "No", "", 1, "NOT RECOVERED/NOT RESOLVED", "N", "N", "N", "N", "", "N", "N", "N", "09-JUL-2014", "06-JUL-2014", "", "Y"]
["CDISCPILOT01", "704", "1017", "Y", "E11", "RASH", "RASH", null, "RASH", null, "HLT_0762", null, "HLGT_0198", null, "SKIN AND SUBCUTANEOUS TISSUE DISORDERS", null, 1, "No", "", 4, "NOT RECOVERED/NOT RESOLVED", "N", "N", "N", "N", "", "N", "N", "N", "09-NOV-2013", "05-NOV-2013", "22-NOV-2013", "N"]
["CDISCPILOT01", "704", "1017", "Y", "E11", "RASH", "RASH", null, "RASH", null, "HLT_0762", null, "HLGT_0198", null, "SKIN AND SUBCUTANEOUS TISSUE DISORDERS", null, 1, "No", "", 4, "RECOVERED/RESOLVED", "N", "N", "N", "N", "", "N", "N", "N", "24-NOV-2013", "05-NOV-2013", "22-NOV-2013", "N"]
["CDISCPILOT01", "704", "1017", "Y", "E12", "PRURITUS", "ITCHING", null, "PRURITUS", null, "HLT_0778", null, "HLGT_0695", null, "SKIN AND SUBCUTANEOUS TISSUE DISORDERS", null, 1, "No", "", 4, "NOT RECOVERED/NOT RESOLVED", "N", "N", "N", "N", "", "N", "N", "N", "09-NOV-2013", "05-NOV-2013", "22-NOV-2013", "N"]
["CDISCPILOT01", "704", "1017", "Y", "E12", "PRURITUS", "ITCHING", null, "PRURITUS", null, "HLT_0778", null, "HLGT_0695", null, "SKIN AND SUBCUTANEOUS TISSUE DISORDERS", null, 1, "No", "", 4, "RECOVERED/RESOLVED", "N", "N", "N", "N", "", "N", "N", "N", "24-NOV-2013", "05-NOV-2013", "22-NOV-2013", "N"]
["CDISCPILOT01", "704", "1017", "Y", "E13", "INFLUENZA", "FLU", null, "INFLUENZA", null, "HLT_0125", null, "HLGT_0081", null, "INFECTIONS AND INFESTATIONS", null, 1, "No", "", 1, "RECOVERED/RESOLVED", "N", "N", "N", "N", "", "N", "N", "N", "09-NOV-2013", "01-NOV-2013", "08-NOV-2013", "N"]
["CDISCPILOT01", "704", "1017", "Y", "E14", "MYOCARDIAL INFARCTION", "MYOCARDIAL INFARCTION", null, "MYOCARDIAL INFARCTION", null, "HLT_0649", null, "HLGT_0688", null, "CARDIAC DISORDERS", null, 1, "No", "", 1, "NOT RECOVERED/NOT RESOLVED", "N", "N", "N", "N", "", "N", "N", "N", "19-OCT-2013", "19-OCT-2013", "", "Y"]
["CDISCPILOT01", "704", "1017", "Y", "E15", "VENTRICULAR SEPTAL DEFECT", "VENTRICULAR SEPTAL DEFECT", null, "VENTRICULAR SEPTAL DEFECT", null, "HLT_0589", null, "HLGT_0747", null, "CONGENITAL, FAMILIAL AND GENETIC DISORDERS", null, 1, "No", "", 1, "NOT RECOVERED/NOT RESOLVED", "N", "N", "N", "N", "", "N", "N", "N", "19-OCT-2013", "19-OCT-2013", "", "Y"]
["CDISCPILOT01", "704", "1017", "Y", "E16", "CARDIAC DISORDER", "CARDIAC DISORDER", null, "CARDIAC DISORDER", null, "HLT_0507", null, "HLGT_0126", null, "CARDIAC DISORDERS", null, 1, "No", "", 1, "NOT RECOVERED/NOT RESOLVED", "N", "N", "N", "N", "", "N", "N", "N", "09-NOV-2013", "01-NOV-2013", "", "Y"]
["CDISCPILOT01", "704", "1025", "Y", "E01", "VERTIGO", "VERTIGO", null, "VERTIGO", null, "HLT_0255", null, "HLGT_0147", null, "EAR AND LABYRINTH DISORDERS", null, 2, "No", "", 3, "RECOVERED/RESOLVED", "N", "N", "N", "N", "", "N", "N", "N", "11-OCT-2013", "28-SEP-2013", "30-SEP-2013", "N"]
["CDISCPILOT01", "704", "1025", "Y", "E02", "PALPITATIONS", "PALPITATIONS", null, "PALPITATIONS", null, "HLT_0493", null, "HLGT_0593", null, "CARDIAC DISORDERS", null, 2, "No", "", 2, "RECOVERED/RESOLVED", "N", "N", "N", "N", "", "N", "N", "N", "11-OCT-2013", "28-SEP-2013", "30-SEP-2013", "N"]
["CDISCPILOT01", "704", "1025", "Y", "E05", "ELECTROCARDIOGRAM ST SEGMENT DEPRESSION", "ST SEGMENT DEPRESSED", null, "ELECTROCARDIOGRAM ST SEGMENT DEPRESSION", null, "HLT_0610", null, "HLGT_0220", null, "INVESTIGATIONS", null, 1, "No", "", 3, "NOT RECOVERED/NOT RESOLVED", "N", "N", "N", "N", "", "N", "N", "N", "11-OCT-2013", "11-OCT-2013", "25-OCT-2013", "N"]
["CDISCPILOT01", "704", "1025", "Y", "E05", "ELECTROCARDIOGRAM ST SEGMENT DEPRESSION", "ST SEGMENT DEPRESSED", null, "ELECTROCARDIOGRAM ST SEGMENT DEPRESSION", null, "HLT_0610", null, "HLGT_0220", null, "INVESTIGATIONS", null, 1, "No", "", 3, "RECOVERED/RESOLVED", "N", "N", "N", "N", "", "N", "N", "N", "29-NOV-2013", "11-OCT-2013", "25-OCT-2013", "N"]
["CDISCPILOT01", "704", "1025", "Y", "E06", "WOLFF-PARKINSON-WHITE SYNDROME", "WOLFF-PARKINSON-WHITE SYNDROME", null, "WOLFF-PARKINSON-WHITE SYNDROME", null, "HLT_0612", null, "HLGT_0218", null, "CARDIAC DISORDERS", null, 1, "No", "", 3, "NOT RECOVERED/NOT RESOLVED", "N", "N", "N", "N", "", "N", "N", "N", "25-OCT-2013", "25-OCT-2013", "29-NOV-2013", "N"]
["CDISCPILOT01", "704", "1025", "Y", "E06", "WOLFF-PARKINSON-WHITE SYNDROME", "WOLFF-PARKINSON-WHITE SYNDROME", null, "WOLFF-PARKINSON-WHITE SYNDROME", null, "HLT_0612", null, "HLGT_0218", null, "CARDIAC DISORDERS", null, 1, "No", "", 3, "RECOVERED/RESOLVED", "N", "N", "N", "N", "", "N", "N", "N", "29-NOV-2013", "25-OCT-2013", "29-NOV-2013", "N"]
["CDISCPILOT01", "704", "1065", "Y", "E07", "RASH", "RASH", null, "RASH", null, "HLT_0762", null, "HLGT_0198", null, "SKIN AND SUBCUTANEOUS TISSUE DISORDERS", null, 1, "No", "", 4, "NOT RECOVERED/NOT RESOLVED", "N", "N", "N", "N", "", "N", "N", "N", "07-NOV-2013", "27-OCT-2013", "", "Y"]
["CDISCPILOT01", "704", "1065", "Y", "E10", "APPLICATION SITE PRURITUS", "APPLICATION SITE ITCHING", null, "APPLICATION SITE PRURITUS", null, "HLT_0317", null, "HLGT_0338", null, "GENERAL DISORDERS AND ADMINISTRATION SITE CONDITIONS", null, 2, "No", "", 4, "NOT RECOVERED/NOT RESOLVED", "N", "N", "N", "N", "", "N", "N", "N", "07-NOV-2013", "27-OCT-2013", "", "Y"]
["CDISCPILOT01", "704", "1065", "Y", "E12", "APPLICATION SITE IRRITATION", "APPLICATION SITE BURNING", null, "APPLICATION SITE IRRITATION", null, "HLT_0061", null, "HLGT_0346", null, "GENERAL DISORDERS AND ADMINISTRATION SITE CONDITIONS", null, 1, "No", "", 4, "NOT RECOVERED/NOT RESOLVED", "N", "N", "N", "N", "", "N", "N", "N", "25-NOV-2013", "09-NOV-2013", "", "Y"]
["CDISCPILOT01", "704", "1065", "Y", "E13", "ABDOMINAL DISCOMFORT", "ABDOMINAL DISCOMFORT", null, "ABDOMINAL DISCOMFORT", null, "HLT_0012", null, "HLGT_0332", null, "GASTROINTESTINAL DISORDERS", null, 1, "No", "", 2, "NOT RECOVERED/NOT RESOLVED", "N", "N", "N", "N", "", "N", "N", "N", "07-NOV-2013", "26-OCT-2013", "", "Y"]
["CDISCPILOT01", "704", "1065", "Y", "E14", "MALAISE", "MALAISE", null, "MALAISE", null, "HLT_0456", null, "HLGT_0178", null, "GENERAL DISORDERS AND ADMINISTRATION SITE CONDITIONS", null, 1, "No", "", 3, "NOT RECOVERED/NOT RESOLVED", "N", "N", "N", "N", "", "N", "N", "N", "25-NOV-2013", "09-NOV-2013", "", "Y"]
["CDISCPILOT01", "704", "1065", "Y", "E15", "HYPERHIDROSIS", "PERSPIRATION EXCESSIVE", null, "HYPERHIDROSIS", null, "HLT_0587", null, "HLGT_0005", null, "SKIN AND SUBCUTANEOUS TISSUE DISORDERS", null, 1, "No", "", 3, "NOT RECOVERED/NOT RESOLVED", "N", "N", "N", "N", "", "N", "N", "N", "25-NOV-2013", "09-NOV-2013", "", "Y"]
["CDISCPILOT01", "704", "1065", "Y", "E16", "CHILLS", "CHILLS", null, "CHILLS", null, "HLT_0586", null, "HLGT_0161", null, "GENERAL DISORDERS AND ADMINISTRATION SITE CONDITIONS", null, 1, "No", "", 2, "RECOVERED/RESOLVED", "N", "N", "N", "N", "", "N", "N", "N", "25-NOV-2013", "17-NOV-2013", "17-NOV-2013", "N"]
["CDISCPILOT01", "704", "1065", "Y", "E17", "DIZZINESS", "DIZZINESS", null, "DIZZINESS", null, "HLT_0619", null, "HLGT_0751", null, "NERVOUS SYSTEM DISORDERS", null, 1, "No", "", 2, "RECOVERED/RESOLVED", "N", "N", "N", "N", "", "N", "N", "N", "25-NOV-2013", "17-NOV-2013", "17-NOV-2013", "N"]
["CDISCPILOT01", "704", "1065", "Y", "E18", "DIARRHOEA", "DIARRHEA", null, "DIARRHOEA", null, "HLT_0148", null, "HLGT_0588", null, "GASTROINTESTINAL DISORDERS", null, 1, "No", "", 2, "RECOVERED/RESOLVED", "N", "N", "N", "N", "", "N", "N", "N", "20-DEC-2013", "15-DEC-2013", "15-DEC-2013", "N"]
["CDISCPILOT01", "704", "1065", "Y", "E19", "SINUS BRADYCARDIA", "BRADYCARDIA SINUS", null, "SINUS BRADYCARDIA", null, "HLT_0644", null, "HLGT_0500", null, "CARDIAC DISORDERS", null, 1, "No", "", 1, "NOT RECOVERED/NOT RESOLVED", "N", "N", "N", "N", "", "N", "N", "N", "24-DEC-2013", "24-DEC-2013", "", "Y"]
["CDISCPILOT01", "704", "1074", "Y", "E08", "PRURITUS", "ITCHING", null, "PRURITUS", null, "HLT_0778", null, "HLGT_0695", null, "SKIN AND SUBCUTANEOUS TISSUE DISORDERS", null, 1, "No", "", 4, "NOT RECOVERED/NOT RESOLVED", "N", "N", "N", "N", "", "N", "N", "N", "22-JAN-2014", "22-JAN-2014", "", "Y"]
["CDISCPILOT01", "704", "1074", "Y", "E09", "ERYTHEMA", "SKIN RED", null, "ERYTHEMA", null, "HLT_0284", null, "HLGT_0192", null, "SKIN AND SUBCUTANEOUS TISSUE DISORDERS", null, 1, "No", "", 4, "NOT RECOVERED/NOT RESOLVED", "N", "N", "N", "N", "", "N", "N", "N", "09-FEB-2014", "09-FEB-2014", "", "Y"]
["CDISCPILOT01", "704", "1093", "Y", "E02", "BLOOD GLUCOSE INCREASED", "GLUCOSE INCREASED", null, "BLOOD GLUCOSE INCREASED", null, "HLT_0450", null, "HLGT_0188", null, "INVESTIGATIONS", null, 1, "No", "", 1, "NOT RECOVERED/NOT RESOLVED", "N", "N", "N", "N", "", "N", "N", "N", "30-MAR-2013", "30-MAR-2013", "13-APR-2013", "N"]
["CDISCPILOT01", "704", "1093", "Y", "E02", "BLOOD GLUCOSE INCREASED", "GLUCOSE INCREASED", null, "BLOOD GLUCOSE INCREASED", null, "HLT_0450", null, "HLGT_0188", null, "INVESTIGATIONS", null, 1, "No", "", 1, "RECOVERED/RESOLVED", "N", "N", "N", "N", "", "N", "N", "N", "17-APR-2013", "30-MAR-2013", "13-APR-2013", "N"]
["CDISCPILOT01", "704", "1093", "Y", "E05", "RASH", "RASH", null, "RASH", null, "HLT_0762", null, "HLGT_0198", null, "SKIN AND SUBCUTANEOUS TISSUE DISORDERS", null, 1, "No", "", 4, "NOT RECOVERED/NOT RESOLVED", "N", "N", "N", "N", "", "N", "N", "N", "11-MAY-2013", "04-MAY-2013", "", "Y"]
["CDISCPILOT01", "704", "1093", "Y", "E06", "PRURITUS", "ITCHING", null, "PRURITUS", null, "HLT_0778", null, "HLGT_0695", null, "SKIN AND SUBCUTANEOUS TISSUE DISORDERS", null, 1, "No", "", 4, "NOT RECOVERED/NOT RESOLVED", "N", "N", "N", "N", "", "N", "N", "N", "11-MAY-2013", "04-MAY-2013", "", "Y"]
["CDISCPILOT01", "704", "1114", "Y", "E03", "OEDEMA", "EDEMA", null, "OEDEMA", null, "HLT_0656", null, "HLGT_0036", null, "GENERAL DISORDERS AND ADMINISTRATION SITE CONDITIONS", null, 1, "No", "", 4, "NOT RECOVERED/NOT RESOLVED", "N", "N", "N", "N", "", "N", "N", "N", "13-MAR-2013", "23-FEB-2013", "", "Y"]
["CDISCPILOT01", "704", "1114", "Y", "E04", "RASH", "RASH", null, "RASH", null, "HLT_0762", null, "HLGT_0198", null, "SKIN AND SUBCUTANEOUS TISSUE DISORDERS", null, 1, "No", "", 4, "NOT RECOVERED/NOT RESOLVED", "N", "N", "N", "N", "", "N", "N", "N", "26-MAR-2013", "23-MAR-2013", "", "Y"]
["CDISCPILOT01", "704", "1114", "Y", "E05", "PRURITUS", "ITCHING", null, "PRURITUS", null, "HLT_0778", null, "HLGT_0695", null, "SKIN AND SUBCUTANEOUS TISSUE DISORDERS", null, 1, "No", "", 4, "NOT RECOVERED/NOT RESOLVED", "N", "N", "N", "N", "", "N", "N", "N", "26-MAR-2013", "23-MAR-2013", "", "Y"]
["CDISCPILOT01", "704", "1114", "Y", "E06", "ERYTHEMA", "REDNESS", null, "ERYTHEMA", null, "HLT_0284", null, "HLGT_0192", null, "SKIN AND SUBCUTANEOUS TISSUE DISORDERS", null, 1, "No", "", 4, "RECOVERED/RESOLVED", "N", "N", "N", "N", "", "N", "N", "N", "13-MAR-2013", "21-FEB-2013", "23-FEB-2013", "N"]
["CDISCPILOT01", "704", "1114", "Y", "E07", "INFLUENZA", "FLU", null, "INFLUENZA", null, "HLT_0125", null, "HLGT_0081", null, "INFECTIONS AND INFESTATIONS", null, 1, "No", "", 1, "RECOVERED/RESOLVED", "N", "N", "N", "N", "", "N", "N", "N", "16-JUN-2013", "07-JUN-2013", "13-JUN-2013", "N"]
["CDISCPILOT01", "704", "1120", "Y", "E01", "RASH", "RASH", null, "RASH", null, "HLT_0762", null, "HLGT_0198", null, "SKIN AND SUBCUTANEOUS TISSUE DISORDERS", null, 1, "No", "", 4, "NOT RECOVERED/NOT RESOLVED", "N", "N", "N", "N", "", "N", "N", "N", "29-DEC-2013", "23-DEC-2013", "", "Y"]
["CDISCPILOT01", "704", "1120", "Y", "E01", "RASH", "RASH", null, "RASH", null, "HLT_0762", null, "HLGT_0198", null, "SKIN AND SUBCUTANEOUS TISSUE DISORDERS", null, 2, "No", "", 4, "NOT RECOVERED/NOT RESOLVED", "N", "N", "N", "N", "", "N", "N", "N", "27-JAN-2014", "23-DEC-2013", "", "Y"]
["CDISCPILOT01", "704", "1120", "Y", "E02", "NASOPHARYNGITIS", "COLD", null, "NASOPHARYNGITIS", null, "HLT_0036", null, "HLGT_0709", null, "INFECTIONS AND INFESTATIONS", null, 1, "No", "", 1, "NOT RECOVERED/NOT RESOLVED", "N", "N", "N", "N", "", "N", "N", "N", "29-DEC-2013", "28-DEC-2013", "03-FEB-2014", "N"]
["CDISCPILOT01", "704", "1120", "Y", "E02", "NASOPHARYNGITIS", "COLD", null, "NASOPHARYNGITIS", null, "HLT_0036", null, "HLGT_0709", null, "INFECTIONS AND INFESTATIONS", null, 1, "No", "", 1, "RECOVERED/RESOLVED", "N", "N", "N", "N", "", "N", "N", "N", "10-MAR-2014", "28-DEC-2013", "03-FEB-2014", "N"]
["CDISCPILOT01", "704", "1120", "Y", "E04", "PRURITUS", "ITCHING", null, "PRURITUS", null, "HLT_0778", null, "HLGT_0695", null, "SKIN AND SUBCUTANEOUS TISSUE DISORDERS", null, 1, "No", "", 4, "NOT RECOVERED/NOT RESOLVED", "N", "N", "N", "N", "", "N", "N", "N", "27-JAN-2014", "27-JAN-2014", "", "Y"]
["CDISCPILOT01", "704", "1120", "Y", "E04", "PRURITUS", "ITCHING", null, "PRURITUS", null, "HLT_0778", null, "HLGT_0695", null, "SKIN AND SUBCUTANEOUS TISSUE DISORDERS", null, 2, "No", "", 4, "NOT RECOVERED/NOT RESOLVED", "N", "N", "N", "N", "", "N", "N", "N", "03-FEB-2014", "27-JAN-2014", "", "Y"]
["CDISCPILOT01", "704", "1127", "N", "", "", "", null, "", null, "", null, "", null, "", null, null, "", "", null, "", "", "", "", "", "", "", "", "", "", "", "", ""]
["CDISCPILOT01", "704", "1135", "Y", "E01", "RASH", "RASH", null, "RASH", null, "HLT_0762", null, "HLGT_0198", null, "SKIN AND SUBCUTANEOUS TISSUE DISORDERS", null, 1, "No", "", null, "NOT RECOVERED/NOT RESOLVED", "N", "N", "N", "N", "", "N", "N", "N", "11-DEC-2013", "08-DEC-2013", "", "Y"]
["CDISCPILOT01", "704", "1135", "Y", "E01", "RASH", "RASH", null, "RASH", null, "HLT_0762", null, "HLGT_0198", null, "SKIN AND SUBCUTANEOUS TISSUE DISORDERS", null, 3, "No", "", null, "NOT RECOVERED/NOT RESOLVED", "N", "N", "N", "N", "", "N", "N", "N", "19-FEB-2014", "08-DEC-2013", "", "Y"]
["CDISCPILOT01", "704", "1164", "Y", "E02", "INFLUENZA", "FLU", null, "INFLUENZA", null, "HLT_0125", null, "HLGT_0081", null, "INFECTIONS AND INFESTATIONS", null, 1, "No", "", 1, "NOT RECOVERED/NOT RESOLVED", "N", "N", "N", "N", "", "N", "N", "N", "04-OCT-2012", "27-SEP-2012", "07-OCT-2012", "N"]
["CDISCPILOT01", "704", "1164", "Y", "E02", "INFLUENZA", "FLU", null, "INFLUENZA", null, "HLT_0125", null, "HLGT_0081", null, "INFECTIONS AND INFESTATIONS", null, 1, "No", "", 1, "RECOVERED/RESOLVED", "N", "N", "N", "N", "", "N", "N", "N", "21-OCT-2012", "27-SEP-2012", "07-OCT-2012", "N"]
["CDISCPILOT01", "704", "1164", "Y", "E07", "OEDEMA PERIPHERAL", "SWELLING OF FEET", null, "OEDEMA PERIPHERAL", null, "HLT_0661", null, "HLGT_0137", null, "GENERAL DISORDERS AND ADMINISTRATION SITE CONDITIONS", null, 1, "No", "", 1, "RECOVERED/RESOLVED", "N", "N", "N", "N", "", "N", "N", "N", "14-FEB-2013", "04-FEB-2013", "13-FEB-2013", "N"]
["CDISCPILOT01", "704", "1218", "Y", "E05", "BLOOD GLUCOSE INCREASED", "GLUCOSE INCREASED", null, "BLOOD GLUCOSE INCREASED", null, "HLT_0450", null, "HLGT_0188", null, "INVESTIGATIONS", null, 1, "No", "", 1, "NOT RECOVERED/NOT RESOLVED", "N", "N", "N", "N", "", "N", "N", "N", "30-DEC-2012", "30-DEC-2012", "", "Y"]
["CDISCPILOT01", "704", "1233", "N", "", "", "", null, "", null, "", null, "", null, "", null, null, "", "", null, "", "", "", "", "", "", "", "", "", "", "", "", ""]
["CDISCPILOT01", "704", "1241", "Y", "E03", "DYSPNOEA", "RESPIRATION LABORED", null, "DYSPNOEA", null, "HLT_0296", null, "HLGT_0255", null, "RESPIRATORY, THORACIC AND MEDIASTINAL DISORDERS", null, 1, "No", "", 1, "NOT RECOVERED/NOT RESOLVED", "N", "N", "N", "N", "", "N", "N", "N", "09-OCT-2013", "28-SEP-2013", "", "Y"]
["CDISCPILOT01", "704", "1241", "Y", "E04", "RASH", "RASH", null, "RASH", null, "HLT_0762", null, "HLGT_0198", null, "SKIN AND SUBCUTANEOUS TISSUE DISORDERS", null, 2, "No", "", 1, "NOT RECOVERED/NOT RESOLVED", "N", "N", "N", "N", "", "N", "N", "N", "09-OCT-2013", "14-AUG-2013", "", "Y"]
["CDISCPILOT01", "704", "1260", "N", "", "", "", null, "", null, "", null, "", null, "", null, null, "", "", null, "", "", "", "", "", "", "", "", "", "", "", "", ""]
["CDISCPILOT01", "704", "1266", "Y", "E10", "ERYTHEMA", "ERYTHEMA", null, "ERYTHEMA", null, "HLT_0284", null, "HLGT_0192", null, "SKIN AND SUBCUTANEOUS TISSUE DISORDERS", null, 1, "No", "", 4, "NOT RECOVERED/NOT RESOLVED", "N", "N", "N", "N", "", "N", "N", "N", "27-OCT-2013", "17-OCT-2013", "23-DEC-2013", "N"]
["CDISCPILOT01", "704", "1266", "Y", "E10", "ERYTHEMA", "ERYTHEMA", null, "ERYTHEMA", null, "HLT_0284", null, "HLGT_0192", null, "SKIN AND SUBCUTANEOUS TISSUE DISORDERS", null, 2, "No", "", 4, "NOT RECOVERED/NOT RESOLVED", "N", "N", "N", "N", "", "N", "N", "N", "06-DEC-2013", "17-OCT-2013", "23-DEC-2013", "N"]
["CDISCPILOT01", "704", "1266", "Y", "E10", "ERYTHEMA", "ERYTHEMA", null, "ERYTHEMA", null, "HLT_0284", null, "HLGT_0192", null, "SKIN AND SUBCUTANEOUS TISSUE DISORDERS", null, 2, "No", "", 4, "RECOVERED/RESOLVED", "N", "N", "N", "N", "", "N", "N", "N", "03-JAN-2014", "17-OCT-2013", "23-DEC-2013", "N"]
["CDISCPILOT01", "704", "1266", "Y", "E11", "SEASONAL ALLERGY", "HAY FEVER", null, "SEASONAL ALLERGY", null, "HLT_0714", null, "HLGT_0782", null, "IMMUNE SYSTEM DISORDERS", null, 1, "No", "", 1, "NOT RECOVERED/NOT RESOLVED", "N", "N", "N", "N", "", "N", "N", "N", "11-OCT-2013", "06-OCT-2013", "", "Y"]
["CDISCPILOT01", "704", "1266", "Y", "E12", "ATRIAL FLUTTER", "ATRIAL FLUTTER", null, "ATRIAL FLUTTER", null, "HLT_0477", null, "HLGT_0627", null, "CARDIAC DISORDERS", null, 1, "No", "", 1, "NOT RECOVERED/NOT RESOLVED", "N", "N", "N", "N", "", "N", "N", "N", "27-OCT-2013", "27-OCT-2013", "08-NOV-2013", "N"]
["CDISCPILOT01", "704", "1266", "Y", "E12", "ATRIAL FLUTTER", "ATRIAL FLUTTER", null, "ATRIAL FLUTTER", null, "HLT_0477", null, "HLGT_0627", null, "CARDIAC DISORDERS", null, 1, "No", "", 1, "RECOVERED/RESOLVED", "N", "N", "N", "N", "", "N", "N", "N", "10-NOV-2013", "27-OCT-2013", "08-NOV-2013", "N"]
["CDISCPILOT01", "704", "1266", "Y", "E13", "ATRIAL FIBRILLATION", "ATRIAL FIBRILLATION", null, "ATRIAL FIBRILLATION", null, "HLT_0365", null, "HLGT_0012", null, "CARDIAC DISORDERS", null, 1, "No", "", 1, "NOT RECOVERED/NOT RESOLVED", "N", "N", "N", "N", "", "N", "N", "N", "08-NOV-2013", "08-NOV-2013", "06-DEC-2013", "N"]
["CDISCPILOT01", "704", "1266", "Y", "E13", "ATRIAL FIBRILLATION", "ATRIAL FIBRILLATION", null, "ATRIAL FIBRILLATION", null, "HLT_0365", null, "HLGT_0012", null, "CARDIAC DISORDERS", null, 1, "No", "", 1, "RECOVERED/RESOLVED", "N", "N", "N", "N", "", "N", "N", "N", "03-JAN-2014", "08-NOV-2013", "06-DEC-2013", "N"]
["CDISCPILOT01", "704", "1266", "Y", "E15", "HYPERHIDROSIS", "PERSPIRATION EXCESSIVE", null, "HYPERHIDROSIS", null, "HLT_0587", null, "HLGT_0005", null, "SKIN AND SUBCUTANEOUS TISSUE DISORDERS", null, 1, "No", "", 3, "NOT RECOVERED/NOT RESOLVED", "N", "N", "N", "N", "", "N", "N", "N", "10-NOV-2013", "09-NOV-2013", "04-DEC-2013", "N"]
["CDISCPILOT01", "704", "1266", "Y", "E15", "HYPERHIDROSIS", "PERSPIRATION EXCESSIVE", null, "HYPERHIDROSIS", null, "HLT_0587", null, "HLGT_0005", null, "SKIN AND SUBCUTANEOUS TISSUE DISORDERS", null, 1, "No", "", 3, "RECOVERED/RESOLVED", "N", "N", "N", "N", "", "N", "N", "N", "06-DEC-2013", "09-NOV-2013", "04-DEC-2013", "N"]
["CDISCPILOT01", "704", "1266", "Y", "E16", "BLISTER", "BLISTERING", null, "BLISTER", null, "HLT_0752", null, "HLGT_0267", null, "SKIN AND SUBCUTANEOUS TISSUE DISORDERS", null, 1, "No", "", 4, "NOT RECOVERED/NOT RESOLVED", "N", "N", "N", "N", "", "N", "N", "N", "22-NOV-2013", "15-NOV-2013", "14-DEC-2013", "N"]
["CDISCPILOT01", "704", "1266", "Y", "E16", "BLISTER", "BLISTERING", null, "BLISTER", null, "HLT_0752", null, "HLGT_0267", null, "SKIN AND SUBCUTANEOUS TISSUE DISORDERS", null, 1, "No", "", 4, "RECOVERED/RESOLVED", "N", "N", "N", "N", "", "N", "N", "N", "03-JAN-2014", "15-NOV-2013", "14-DEC-2013", "N"]
["CDISCPILOT01", "704", "1266", "Y", "E17", "PRURITUS", "ITCHING", null, "PRURITUS", null, "HLT_0778", null, "HLGT_0695", null, "SKIN AND SUBCUTANEOUS TISSUE DISORDERS", null, 1, "No", "", 4, "NOT RECOVERED/NOT RESOLVED", "N", "N", "N", "N", "", "N", "N", "N", "22-NOV-2013", "15-NOV-2013", "23-DEC-2013", "N"]
["CDISCPILOT01", "704", "1266", "Y", "E17", "PRURITUS", "ITCHING", null, "PRURITUS", null, "HLT_0778", null, "HLGT_0695", null, "SKIN AND SUBCUTANEOUS TISSUE DISORDERS", null, 1, "No", "", 4, "RECOVERED/RESOLVED", "N", "N", "N", "N", "", "N", "N", "N", "03-JAN-2014", "15-NOV-2013", "23-DEC-2013", "N"]
["CDISCPILOT01", "704", "1266", "Y", "E18", "ERYTHEMA", "REDNESS", null, "ERYTHEMA", null, "HLT_0284", null, "HLGT_0192", null, "SKIN AND SUBCUTANEOUS TISSUE DISORDERS", null, 1, "No", "", 4, "NOT RECOVERED/NOT RESOLVED", "N", "N", "N", "N", "", "N", "N", "N", "06-DEC-2013", "06-DEC-2013", "23-DEC-2013", "N"]
["CDISCPILOT01", "704", "1266", "Y", "E18", "ERYTHEMA", "REDNESS", null, "ERYTHEMA", null, "HLT_0284", null, "HLGT_0192", null, "SKIN AND SUBCUTANEOUS TISSUE DISORDERS", null, 1, "No", "", 4, "RECOVERED/RESOLVED", "N", "N", "N", "N", "", "N", "N", "N", "03-JAN-2014", "06-DEC-2013", "23-DEC-2013", "N"]
["CDISCPILOT01", "704", "1323", "Y", "E07", "VIRAL INFECTION", "VIRAL INFECTION", null, "VIRAL INFECTION", null, "HLT_0733", null, "HLGT_0408", null, "INFECTIONS AND INFESTATIONS", null, 1, "No", "", 1, "RECOVERED/RESOLVED", "N", "N", "N", "N", "", "N", "N", "N", "04-AUG-2013", "30-JUL-2013", "03-AUG-2013", "N"]
["CDISCPILOT01", "704", "1323", "Y", "E08", "RASH", "RASH", null, "RASH", null, "HLT_0762", null, "HLGT_0198", null, "SKIN AND SUBCUTANEOUS TISSUE DISORDERS", null, 1, "No", "", 4, "NOT RECOVERED/NOT RESOLVED", "N", "N", "N", "N", "", "N", "N", "N", "04-AUG-2013", "04-AUG-2013", "", "Y"]
["CDISCPILOT01", "704", "1323", "Y", "E09", "PRURITUS", "ITCHING", null, "PRURITUS", null, "HLT_0778", null, "HLGT_0695", null, "SKIN AND SUBCUTANEOUS TISSUE DISORDERS", null, 1, "No", "", 4, "NOT RECOVERED/NOT RESOLVED", "N", "N", "N", "N", "", "N", "N", "N", "04-AUG-2013", "04-AUG-2013", "", "Y"]
["CDISCPILOT01", "704", "1323", "Y", "E10", "OEDEMA", "EDEMA", null, "OEDEMA", null, "HLT_0656", null, "HLGT_0036", null, "GENERAL DISORDERS AND ADMINISTRATION SITE CONDITIONS", null, 1, "No", "", 4, "NOT RECOVERED/NOT RESOLVED", "N", "N", "N", "N", "", "N", "N", "N", "04-AUG-2013", "04-AUG-2013", "", "Y"]
["CDISCPILOT01", "704", "1325", "Y", "E04", "RASH", "RASH", null, "RASH", null, "HLT_0762", null, "HLGT_0198", null, "SKIN AND SUBCUTANEOUS TISSUE DISORDERS", null, 1, "No", "", 4, "NOT RECOVERED/NOT RESOLVED", "N", "N", "N", "N", "", "N", "N", "N", "04-JUN-2014", "23-MAY-2014", "", "Y"]
["CDISCPILOT01", "704", "1325", "Y", "E05", "PRURITUS", "ITCHING", null, "PRURITUS", null, "HLT_0778", null, "HLGT_0695", null, "SKIN AND SUBCUTANEOUS TISSUE DISORDERS", null, 1, "No", "", 4, "NOT RECOVERED/NOT RESOLVED", "N", "N", "N", "N", "", "N", "N", "N", "16-JUL-2014", "04-JUL-2014", "", "Y"]
["CDISCPILOT01", "704", "1332", "Y", "E01", "RASH", "RASH", null, "RASH", null, "HLT_0762", null, "HLGT_0198", null, "SKIN AND SUBCUTANEOUS TISSUE DISORDERS", null, 1, "No", "", 1, "NOT RECOVERED/NOT RESOLVED", "N", "N", "N", "N", "", "N", "N", "N", "23-DEC-2013", "10-DEC-2013", "24-FEB-2014", "N"]
["CDISCPILOT01", "704", "1332", "Y", "E01", "RASH", "RASH", null, "RASH", null, "HLT_0762", null, "HLGT_0198", null, "SKIN AND SUBCUTANEOUS TISSUE DISORDERS", null, 2, "No", "", 1, "NOT RECOVERED/NOT RESOLVED", "N", "N", "N", "N", "", "N", "N", "N", "03-FEB-2014", "10-DEC-2013", "24-FEB-2014", "N"]
["CDISCPILOT01", "704", "1332", "Y", "E01", "RASH", "RASH", null, "RASH", null, "HLT_0762", null, "HLGT_0198", null, "SKIN AND SUBCUTANEOUS TISSUE DISORDERS", null, 2, "No", "", 1, "RECOVERED/RESOLVED", "N", "N", "N", "N", "", "N", "N", "N", "24-FEB-2014", "10-DEC-2013", "24-FEB-2014", "N"]
["CDISCPILOT01", "704", "1332", "Y", "E02", "PRURITUS", "ITCHING", null, "PRURITUS", null, "HLT_0778", null, "HLGT_0695", null, "SKIN AND SUBCUTANEOUS TISSUE DISORDERS", null, 1, "No", "", 4, "NOT RECOVERED/NOT RESOLVED", "N", "N", "N", "N", "", "N", "N", "N", "20-JAN-2014", "18-JAN-2014", "24-FEB-2014", "N"]
["CDISCPILOT01", "704", "1332", "Y", "E02", "PRURITUS", "ITCHING", null, "PRURITUS", null, "HLT_0778", null, "HLGT_0695", null, "SKIN AND SUBCUTANEOUS TISSUE DISORDERS", null, 1, "No", "", 4, "RECOVERED/RESOLVED", "N", "N", "N", "N", "", "N", "N", "N", "24-FEB-2014", "18-JAN-2014", "24-FEB-2014", "N"]
["CDISCPILOT01", "704", "1332", "Y", "E05", "BURNING SENSATION", "BURNING SENSATION", null, "BURNING SENSATION", null, "HLT_0775", null, "HLGT_0456", null, "NERVOUS SYSTEM DISORDERS", null, 1, "No", "", 4, "NOT RECOVERED/NOT RESOLVED", "N", "N", "N", "N", "", "N", "N", "N", "03-FEB-2014", "03-FEB-2014", "", "Y"]
["CDISCPILOT01", "704", "1351", "Y", "E02", "POLLAKIURIA", "URINARY FREQUENCY", null, "POLLAKIURIA", null, "HLT_0393", null, "HLGT_0560", null, "RENAL AND URINARY DISORDERS", null, 1, "No", "", 1, "NOT RECOVERED/NOT RESOLVED", "N", "N", "N", "N", "", "N", "N", "N", "07-NOV-2013", "27-OCT-2013", "04-APR-2014", "N"]
["CDISCPILOT01", "704", "1351", "Y", "E02", "POLLAKIURIA", "URINARY FREQUENCY", null, "POLLAKIURIA", null, "HLT_0393", null, "HLGT_0560", null, "RENAL AND URINARY DISORDERS", null, 1, "No", "", 1, "RECOVERED/RESOLVED", "N", "N", "N", "N", "", "N", "N", "N", "18-APR-2014", "27-OCT-2013", "04-APR-2014", "N"]
["CDISCPILOT01", "704", "1351", "Y", "E03", "FLATULENCE", "GAS", null, "FLATULENCE", null, "HLT_0356", null, "HLGT_0504", null, "GASTROINTESTINAL DISORDERS", null, 1, "No", "", 1, "NOT RECOVERED/NOT RESOLVED", "N", "N", "N", "N", "", "N", "N", "N", "07-NOV-2013", "27-OCT-2013", "04-APR-2014", "N"]
["CDISCPILOT01", "704", "1351", "Y", "E03", "FLATULENCE", "GAS", null, "FLATULENCE", null, "HLT_0356", null, "HLGT_0504", null, "GASTROINTESTINAL DISORDERS", null, 1, "No", "", 1, "RECOVERED/RESOLVED", "N", "N", "N", "N", "", "N", "N", "N", "18-APR-2014", "27-OCT-2013", "04-APR-2014", "N"]
["CDISCPILOT01", "704", "1388", "Y", "E01", "HEADACHE", "HEADACHE", null, "HEADACHE", null, "HLT_0064", null, "HLGT_0344", null, "NERVOUS SYSTEM DISORDERS", null, 2, "No", "", 1, "NOT RECOVERED/NOT RESOLVED", "N", "N", "N", "N", "", "N", "N", "N", "27-MAR-2013", "23-AUG-2012", "", "Y"]
["CDISCPILOT01", "704", "1435", "Y", "E08", "PARKINSON'S DISEASE", "DISEASE PARKINSON'S", null, "PARKINSON'S DISEASE", null, "HLT_0279", null, "HLGT_0313", null, "NERVOUS SYSTEM DISORDERS", null, 1, "No", "", 1, "NOT RECOVERED/NOT RESOLVED", "N", "N", "N", "N", "", "N", "N", "N", "12-JAN-2013", "06-JAN-2013", "", "Y"]
["CDISCPILOT01", "704", "1445", "Y", "E06", "COMPLETED SUICIDE", "SUICIDE", null, "COMPLETED SUICIDE", null, "HLT_0625", null, "HLGT_0013", null, "PSYCHIATRIC DISORDERS", null, 3, "No", "", 1, "FATAL", "N", "N", "N", "Y", "01-NOV-2014", "N", "N", "N", "01-NOV-2014", "31-OCT-2014", "31-OCT-2014", "N"]
["CDISCPILOT01", "705", "1011", "N", "", "", "", null, "", null, "", null, "", null, "", null, null, "", "", null, "", "", "", "", "", "", "", "", "", "", "", "", ""]
["CDISCPILOT01", "705", "1018", "N", "", "", "", null, "", null, "", null, "", null, "", null, null, "", "", null, "", "", "", "", "", "", "", "", "", "", "", "", ""]
["CDISCPILOT01", "705", "1031", "Y", "E02", "RASH", "RASH", null, "RASH", null, "HLT_0762", null, "HLGT_0198", null, "SKIN AND SUBCUTANEOUS TISSUE DISORDERS", null, 1, "No", "", 3, "NOT RECOVERED/NOT RESOLVED", "N", "N", "N", "N", "", "N", "N", "N", "25-DEC-2013", "25-DEC-2013", "", "Y"]
["CDISCPILOT01", "705", "1058", "N", "", "", "", null, "", null, "", null, "", null, "", null, null, "", "", null, "", "", "", "", "", "", "", "", "", "", "", "", ""]
["CDISCPILOT01", "705", "1059", "Y", "E02", "ERYTHEMA", "ERYTHEMA", null, "ERYTHEMA", null, "HLT_0284", null, "HLGT_0192", null, "SKIN AND SUBCUTANEOUS TISSUE DISORDERS", null, 2, "No", "", 4, "NOT RECOVERED/NOT RESOLVED", "N", "N", "N", "N", "", "N", "N", "N", "07-NOV-2013", "02-NOV-2013", "", "Y"]
["CDISCPILOT01", "705", "1112", "N", "", "", "", null, "", null, "", null, "", null, "", null, null, "", "", null, "", "", "", "", "", "", "", "", "", "", "", "", ""]
["CDISCPILOT01", "705", "1186", "Y", "E02", "HYPERBILIRUBINAEMIA", "HYPERBILIRUBINEMIA", null, "HYPERBILIRUBINAEMIA", null, "HLT_0478", null, "HLGT_0087", null, "HEPATOBILIARY DISORDERS", null, 2, "No", "", 2, "NOT RECOVERED/NOT RESOLVED", "N", "N", "N", "N", "", "N", "N", "N", "07-FEB-2014", "26-JAN-2014", "", "Y"]
["CDISCPILOT01", "705", "1199", "Y", "E06", "DYSPEPSIA", "PYROSIS", null, "DYSPEPSIA", null, "HLT_0244", null, "HLGT_0716", null, "GASTROINTESTINAL DISORDERS", null, 2, "No", "", 3, "NOT RECOVERED/NOT RESOLVED", "N", "N", "N", "N", "", "N", "N", "N", "29-SEP-2013", "17-SEP-2013", "29-SEP-2013", "N"]
["CDISCPILOT01", "705", "1199", "Y", "E06", "DYSPEPSIA", "PYROSIS", null, "DYSPEPSIA", null, "HLT_0244", null, "HLGT_0716", null, "GASTROINTESTINAL DISORDERS", null, 2, "No", "", 3, "RECOVERED/RESOLVED", "N", "N", "N", "N", "", "N", "N", "N", "29-SEP-2013", "17-SEP-2013", "29-SEP-2013", "N"]
["CDISCPILOT01", "705", "1243", "N", "", "", "", null, "", null, "", null, "", null, "", null, null, "", "", null, "", "", "", "", "", "", "", "", "", "", "", "", ""]
["CDISCPILOT01", "705", "1280", "Y", "E01", "PRURITUS", "PRURITUS", null, "PRURITUS", null, "HLT_0778", null, "HLGT_0695", null, "SKIN AND SUBCUTANEOUS TISSUE DISORDERS", null, 1, "No", "", 3, "NOT RECOVERED/NOT RESOLVED", "N", "N", "N", "N", "", "N", "N", "N", "16-MAY-2014", "20-APR-2014", "", "Y"]
["CDISCPILOT01", "705", "1281", "Y", "E04", "PRURITUS", "PRURITUS", null, "PRURITUS", null, "HLT_0778", null, "HLGT_0695", null, "SKIN AND SUBCUTANEOUS TISSUE DISORDERS", null, 1, "No", "", 3, "NOT RECOVERED/NOT RESOLVED", "N", "N", "N", "N", "", "N", "N", "N", "18-FEB-2014", "30-JAN-2014", "", "Y"]
["CDISCPILOT01", "705", "1281", "Y", "E04", "PRURITUS", "PRURITUS", null, "PRURITUS", null, "HLT_0778", null, "HLGT_0695", null, "SKIN AND SUBCUTANEOUS TISSUE DISORDERS", null, 2, "No", "", 3, "NOT RECOVERED/NOT RESOLVED", "N", "N", "N", "N", "", "N", "N", "N", "17-MAR-2014", "30-JAN-2014", "", "Y"]
["CDISCPILOT01", "705", "1281", "Y", "E05", "EXCORIATION", "ABRASIONS", null, "EXCORIATION", null, "HLT_0738", null, "HLGT_0511", null, "INJURY, POISONING AND PROCEDURAL COMPLICATIONS", null, 2, "No", "", 4, "NOT RECOVERED/NOT RESOLVED", "N", "N", "N", "N", "", "N", "N", "N", "18-FEB-2014", "30-JAN-2014", "", "Y"]
["CDISCPILOT01", "705", "1282", "N", "", "", "", null, "", null, "", null, "", null, "", null, null, "", "", null, "", "", "", "", "", "", "", "", "", "", "", "", ""]
["CDISCPILOT01", "705", "1292", "Y", "E01", "PRURITUS", "ITCHY", null, "PRURITUS", null, "HLT_0778", null, "HLGT_0695", null, "SKIN AND SUBCUTANEOUS TISSUE DISORDERS", null, 1, "No", "", 4, "NOT RECOVERED/NOT RESOLVED", "N", "N", "N", "N", "", "N", "N", "N", "29-OCT-2013", "28-OCT-2013", "", "Y"]
["CDISCPILOT01", "705", "1292", "Y", "E02", "ERYTHEMA", "ERYTHEMA", null, "ERYTHEMA", null, "HLT_0284", null, "HLGT_0192", null, "SKIN AND SUBCUTANEOUS TISSUE DISORDERS", null, 2, "No", "", 4, "NOT RECOVERED/NOT RESOLVED", "N", "N", "N", "N", "", "N", "N", "N", "03-MAR-2014", "13-FEB-2014", "", "Y"]
["CDISCPILOT01", "705", "1303", "Y", "E02", "PRURITUS", "PRURITUS", null, "PRURITUS", null, "HLT_0778", null, "HLGT_0695", null, "SKIN AND SUBCUTANEOUS TISSUE DISORDERS", null, 1, "No", "", 3, "NOT RECOVERED/NOT RESOLVED", "N", "N", "N", "N", "", "N", "N", "N", "10-FEB-2014", "05-FEB-2014", "03-MAR-2014", "N"]
["CDISCPILOT01", "705", "1303", "Y", "E02", "PRURITUS", "PRURITUS", null, "PRURITUS", null, "HLT_0778", null, "HLGT_0695", null, "SKIN AND SUBCUTANEOUS TISSUE DISORDERS", null, 1, "No", "", 3, "RECOVERED/RESOLVED", "N", "N", "N", "N", "", "N", "N", "N", "07-APR-2014", "05-FEB-2014", "03-MAR-2014", "N"]
["CDISCPILOT01", "705", "1303", "Y", "E03", "RASH", "RASH", null, "RASH", null, "HLT_0762", null, "HLGT_0198", null, "SKIN AND SUBCUTANEOUS TISSUE DISORDERS", null, 1, "No", "", 3, "NOT RECOVERED/NOT RESOLVED", "N", "N", "N", "N", "", "N", "N", "N", "10-FEB-2014", "05-FEB-2014", "03-MAR-2014", "N"]
["CDISCPILOT01", "705", "1303", "Y", "E03", "RASH", "RASH", null, "RASH", null, "HLT_0762", null, "HLGT_0198", null, "SKIN AND SUBCUTANEOUS TISSUE DISORDERS", null, 2, "No", "", 3, "RECOVERED/RESOLVED", "N", "N", "N", "N", "", "N", "N", "N", "07-APR-2014", "05-FEB-2014", "03-MAR-2014", "N"]
["CDISCPILOT01", "705", "1310", "Y", "E02", "RASH PRURITIC", "PRURITIC RASH", null, "RASH PRURITIC", null, "HLT_0127", null, "HLGT_0753", null, "SKIN AND SUBCUTANEOUS TISSUE DISORDERS", null, 2, "No", "", 3, "NOT RECOVERED/NOT RESOLVED", "N", "N", "N", "N", "", "N", "N", "N", "22-NOV-2013", "14-NOV-2013", "", "Y"]
["CDISCPILOT01", "705", "1310", "Y", "E03", "WOUND HAEMORRHAGE", "WOUND BLEEDING", null, "WOUND HAEMORRHAGE", null, "HLT_0154", null, "HLGT_0162", null, "VASCULAR DISORDERS", null, 2, "No", "", 3, "NOT RECOVERED/NOT RESOLVED", "N", "N", "N", "N", "", "N", "N", "N", "23-JAN-2014", "09-JAN-2014", "", "Y"]
["CDISCPILOT01", "705", "1349", "Y", "E03", "NAUSEA", "NAUSEA", null, "NAUSEA", null, "HLT_0742", null, "HLGT_0326", null, "GASTROINTESTINAL DISORDERS", null, 1, "No", "", 2, "RECOVERED/RESOLVED", "N", "N", "N", "N", "", "N", "N", "N", "17-APR-2013", "08-APR-2013", "08-APR-2013", "N"]
["CDISCPILOT01", "705", "1349", "Y", "E04", "VOMITING", "VOMITING", null, "VOMITING", null, "HLT_0016", null, "HLGT_0350", null, "GASTROINTESTINAL DISORDERS", null, 1, "No", "", 2, "RECOVERED/RESOLVED", "N", "N", "N", "N", "", "N", "N", "N", "17-APR-2013", "11-APR-2013", "11-APR-2013", "N"]
["CDISCPILOT01", "705", "1349", "Y", "E05", "VENTRICULAR HYPERTROPHY", "LEFT VENTRICULAR HYPERTROPHY", null, "VENTRICULAR HYPERTROPHY", null, "HLT_0104", null, "HLGT_0259", null, "CARDIAC DISORDERS", null, 1, "No", "", 2, "NOT RECOVERED/NOT RESOLVED", "N", "N", "N", "N", "", "N", "N", "N", "25-AUG-2013", "25-AUG-2013", "", "Y"]
["CDISCPILOT01", "705", "1349", "Y", "E06", "ELECTROCARDIOGRAM ST SEGMENT DEPRESSION", "ST SEGMENT DEPRESSED", null, "ELECTROCARDIOGRAM ST SEGMENT DEPRESSION", null, "HLT_0610", null, "HLGT_0220", null, "INVESTIGATIONS", null, 1, "No", "", 2, "NOT RECOVERED/NOT RESOLVED", "N", "N", "N", "N", "", "N", "N", "N", "25-AUG-2013", "25-AUG-2013", "", "Y"]
["CDISCPILOT01", "705", "1377", "N", "", "", "", null, "", null, "", null, "", null, "", null, null, "", "", null, "", "", "", "", "", "", "", "", "", "", "", "", ""]
["CDISCPILOT01", "705", "1382", "N", "", "", "", null, "", null, "", null, "", null, "", null, null, "", "", null, "", "", "", "", "", "", "", "", "", "", "", "", ""]
["CDISCPILOT01", "705", "1393", "Y", "E01", "ABDOMINAL PAIN", "ABDOMINAL CRAMPS", null, "ABDOMINAL PAIN", null, "HLT_0217", null, "HLGT_0419", null, "GASTROINTESTINAL DISORDERS", null, 1, "No", "", 2, "RECOVERED/RESOLVED", "N", "N", "N", "N", "", "N", "N", "N", "27-SEP-2012", "19-SEP-2012", "24-SEP-2012", "N"]
["CDISCPILOT01", "705", "1393", "Y", "E04", "PRURITUS", "PRURITUS", null, "PRURITUS", null, "HLT_0778", null, "HLGT_0695", null, "SKIN AND SUBCUTANEOUS TISSUE DISORDERS", null, 1, "No", "", 4, "NOT RECOVERED/NOT RESOLVED", "N", "N", "N", "N", "", "N", "N", "N", "05-DEC-2012", "05-DEC-2011", "20-FEB-2013", "N"]
["CDISCPILOT01", "705", "1393", "Y", "E04", "PRURITUS", "PRURITUS", null, "PRURITUS", null, "HLT_0778", null, "HLGT_0695", null, "SKIN AND SUBCUTANEOUS TISSUE DISORDERS", null, 1, "No", "", 4, "RECOVERED/RESOLVED", "N", "N", "N", "N", "", "N", "N", "N", "25-APR-2013", "05-DEC-2011", "20-FEB-2013", "N"]
["CDISCPILOT01", "705", "1393", "Y", "E05", "COLON CANCER", "COLON CANCER", null, "COLON CANCER", null, "HLT_0597", null, "HLGT_0339", null, "NEOPLASMS BENIGN, MALIGNANT AND UNSPECIFIED (INCL CYSTS AND POLYPS)", null, 3, "No", "", 1, "RECOVERED/RESOLVED", "Y", "N", "N", "N", "", "Y", "N", "N", "20-FEB-2013", "21-JAN-2013", "24-JAN-2013", "N"]
["CDISCPILOT01", "705", "1421", "N", "", "", "", null, "", null, "", null, "", null, "", null, null, "", "", null, "", "", "", "", "", "", "", "", "", "", "", "", ""]
["CDISCPILOT01", "705", "1431", "Y", "E04", "ANXIETY", "FEELING ANXIOUS", null, "ANXIETY", null, "HLT_0559", null, "HLGT_0570", null, "PSYCHIATRIC DISORDERS", null, 1, "No", "", 3, "RECOVERED/RESOLVED", "N", "N", "N", "N", "", "N", "N", "N", "07-JUL-2013", "04-JUL-2013", "06-JUL-2013", "N"]
["CDISCPILOT01", "705", "1431", "Y", "E05", "RASH ERYTHEMATOUS", "ERYTHEMATOUS RASH", null, "RASH ERYTHEMATOUS", null, "HLT_0336", null, "HLGT_0701", null, "SKIN AND SUBCUTANEOUS TISSUE DISORDERS", null, 1, "No", "", 4, "NOT RECOVERED/NOT RESOLVED", "N", "N", "N", "N", "", "N", "N", "N", "23-JUN-2013", "22-JUN-2013", "", "Y"]
["CDISCPILOT01", "706", "1041", "Y", "E01", "DIARRHOEA", "DIARRHEA", null, "DIARRHOEA", null, "HLT_0148", null, "HLGT_0588", null, "GASTROINTESTINAL DISORDERS", null, 1, "No", "", 2, "RECOVERED/RESOLVED", "N", "N", "N", "N", "", "N", "N", "N", "14-JAN-2014", "07-JAN-2014", "08-JAN-2014", "N"]
["CDISCPILOT01", "706", "1041", "Y", "E02", "ANXIETY", "ANXIETY ATTACK", null, "ANXIETY", null, "HLT_0559", null, "HLGT_0570", null, "PSYCHIATRIC DISORDERS", null, 2, "No", "", 2, "NOT RECOVERED/NOT RESOLVED", "N", "N", "N", "N", "", "N", "N", "N", "14-JAN-2014", "MAY-2012", "", "Y"]
["CDISCPILOT01", "706", "1041", "Y", "E02", "ANXIETY", "ANXIETY ATTACK", null, "ANXIETY", null, "HLT_0559", null, "HLGT_0570", null, "PSYCHIATRIC DISORDERS", null, 1, "No", "", 2, "NOT RECOVERED/NOT RESOLVED", "N", "N", "N", "N", "", "N", "N", "N", "06-MAY-2014", "MAY-2012", "", "Y"]
["CDISCPILOT01", "706", "1041", "Y", "E03", "IRRITABILITY", "IRRITABILITY", null, "IRRITABILITY", null, "HLT_0627", null, "HLGT_0461", null, "PSYCHIATRIC DISORDERS", null, 2, "No", "", 3, "NOT RECOVERED/NOT RESOLVED", "N", "N", "N", "N", "", "N", "N", "N", "28-JAN-2014", "15-JAN-2014", "29-JUL-2014", "N"]
["CDISCPILOT01", "706", "1041", "Y", "E03", "IRRITABILITY", "IRRITABILITY", null, "IRRITABILITY", null, "HLT_0627", null, "HLGT_0461", null, "PSYCHIATRIC DISORDERS", null, 2, "No", "", 3, "RECOVERED/RESOLVED", "N", "N", "N", "N", "", "N", "N", "N", "29-JUL-2014", "15-JAN-2014", "29-JUL-2014", "N"]
["CDISCPILOT01", "706", "1041", "Y", "E07", "EXCORIATION", "ABRASIONS", null, "EXCORIATION", null, "HLT_0738", null, "HLGT_0511", null, "INJURY, POISONING AND PROCEDURAL COMPLICATIONS", null, 1, "No", "", 1, "NOT RECOVERED/NOT RESOLVED", "N", "N", "N", "N", "", "N", "N", "N", "14-JAN-2014", "14-JAN-2014", "28-JAN-2014", "N"]
["CDISCPILOT01", "706", "1041", "Y", "E07", "EXCORIATION", "ABRASIONS", null, "EXCORIATION", null, "HLT_0738", null, "HLGT_0511", null, "INJURY, POISONING AND PROCEDURAL COMPLICATIONS", null, 1, "No", "", 1, "RECOVERED/RESOLVED", "N", "N", "N", "N", "", "N", "N", "N", "30-JAN-2014", "14-JAN-2014", "28-JAN-2014", "N"]
["CDISCPILOT01", "706", "1041", "Y", "E08", "PRURITUS", "ITCHING", null, "PRURITUS", null, "HLT_0778", null, "HLGT_0695", null, "SKIN AND SUBCUTANEOUS TISSUE DISORDERS", null, 1, "No", "", 3, "NOT RECOVERED/NOT RESOLVED", "N", "N", "N", "N", "", "N", "N", "N", "04-MAR-2014", "04-MAR-2014", "29-JUL-2014", "N"]
["CDISCPILOT01", "706", "1041", "Y", "E08", "PRURITUS", "ITCHING", null, "PRURITUS", null, "HLT_0778", null, "HLGT_0695", null, "SKIN AND SUBCUTANEOUS TISSUE DISORDERS", null, 1, "No", "", 3, "RECOVERED/RESOLVED", "N", "N", "N", "N", "", "N", "N", "N", "29-JUL-2014", "04-MAR-2014", "29-JUL-2014", "N"]
["CDISCPILOT01", "706", "1049", "Y", "E01", "SYNCOPE", "FAINTING", null, "SYNCOPE", null, "HLT_0440", null, "HLGT_0310", null, "NERVOUS SYSTEM DISORDERS", null, 2, "No", "", 3, "RECOVERED/RESOLVED", "N", "N", "N", "N", "", "N", "N", "N", "11-JUN-2013", "03-JUN-2013", "03-JUN-2013", "N"]
["CDISCPILOT01", "706", "1049", "Y", "E02", "SYNCOPE", "SYNCOPAL ATTACK", null, "SYNCOPE", null, "HLT_0440", null, "HLGT_0310", null, "NERVOUS SYSTEM DISORDERS", null, 3, "No", "", 4, "RECOVERED/RESOLVED", "N", "N", "N", "N", "", "Y", "N", "N", "25-JUN-2013", "18-JUN-2013", "18-JUN-2013", "N"]
["CDISCPILOT01", "706", "1384", "Y", "E01", "ERYTHEMA", "ERYTHEMA", null, "ERYTHEMA", null, "HLT_0284", null, "HLGT_0192", null, "SKIN AND SUBCUTANEOUS TISSUE DISORDERS", null, 2, "No", "", 4, "NOT RECOVERED/NOT RESOLVED", "N", "N", "N", "N", "", "N", "N", "N", "29-SEP-2012", "23-SEP-2012", "29-SEP-2012", "N"]
["CDISCPILOT01", "706", "1384", "Y", "E01", "ERYTHEMA", "ERYTHEMA", null, "ERYTHEMA", null, "HLT_0284", null, "HLGT_0192", null, "SKIN AND SUBCUTANEOUS TISSUE DISORDERS", null, 2, "No", "", 4, "RECOVERED/RESOLVED", "N", "N", "N", "N", "", "N", "N", "N", "22-JUN-2013", "23-SEP-2012", "29-SEP-2012", "N"]
["CDISCPILOT01", "706", "1384", "Y", "E03", "ERYTHEMA", "ERYTHEMA", null, "ERYTHEMA", null, "HLT_0284", null, "HLGT_0192", null, "SKIN AND SUBCUTANEOUS TISSUE DISORDERS", null, 2, "No", "", 1, "NOT RECOVERED/NOT RESOLVED", "N", "N", "N", "N", "", "N", "N", "N", "15-SEP-2012", "15-SEP-2012", "29-SEP-2012", "N"]
["CDISCPILOT01", "706", "1384", "Y", "E03", "ERYTHEMA", "ERYTHEMA", null, "ERYTHEMA", null, "HLT_0284", null, "HLGT_0192", null, "SKIN AND SUBCUTANEOUS TISSUE DISORDERS", null, 2, "No", "", 1, "RECOVERED/RESOLVED", "N", "N", "N", "N", "", "N", "N", "N", "22-JUN-2013", "15-SEP-2012", "29-SEP-2012", "N"]
["CDISCPILOT01", "706", "1384", "Y", "E04", "PRURITUS", "PRURITIS", null, "PRURITUS", null, "HLT_0778", null, "HLGT_0695", null, "SKIN AND SUBCUTANEOUS TISSUE DISORDERS", null, 2, "No", "", 1, "NOT RECOVERED/NOT RESOLVED", "N", "N", "N", "N", "", "N", "N", "N", "15-SEP-2012", "15-SEP-2012", "29-SEP-2012", "N"]
["CDISCPILOT01", "706", "1384", "Y", "E04", "PRURITUS", "PRURITIS", null, "PRURITUS", null, "HLT_0778", null, "HLGT_0695", null, "SKIN AND SUBCUTANEOUS TISSUE DISORDERS", null, 2, "No", "", 1, "RECOVERED/RESOLVED", "N", "N", "N", "N", "", "N", "N", "N", "22-JUN-2013", "15-SEP-2012", "29-SEP-2012", "N"]
["CDISCPILOT01", "706", "1384", "Y", "E05", "EXCORIATION", "ABRASIONS", null, "EXCORIATION", null, "HLT_0738", null, "HLGT_0511", null, "INJURY, POISONING AND PROCEDURAL COMPLICATIONS", null, 2, "No", "", 1, "NOT RECOVERED/NOT RESOLVED", "N", "N", "N", "N", "", "N", "N", "N", "15-SEP-2012", "15-SEP-2012", "29-SEP-2012", "N"]
["CDISCPILOT01", "706", "1384", "Y", "E05", "EXCORIATION", "ABRASIONS", null, "EXCORIATION", null, "HLT_0738", null, "HLGT_0511", null, "INJURY, POISONING AND PROCEDURAL COMPLICATIONS", null, 2, "No", "", 1, "RECOVERED/RESOLVED", "N", "N", "N", "N", "", "N", "N", "N", "22-JUN-2013", "15-SEP-2012", "29-SEP-2012", "N"]
["CDISCPILOT01", "706", "1384", "Y", "E06", "PRURITUS", "PRURITIS", null, "PRURITUS", null, "HLT_0778", null, "HLGT_0695", null, "SKIN AND SUBCUTANEOUS TISSUE DISORDERS", null, 2, "No", "", 4, "NOT RECOVERED/NOT RESOLVED", "N", "N", "N", "N", "", "N", "N", "N", "29-SEP-2012", "23-SEP-2012", "29-SEP-2012", "N"]
["CDISCPILOT01", "706", "1384", "Y", "E06", "PRURITUS", "PRURITIS", null, "PRURITUS", null, "HLT_0778", null, "HLGT_0695", null, "SKIN AND SUBCUTANEOUS TISSUE DISORDERS", null, 2, "No", "", 4, "RECOVERED/RESOLVED", "N", "N", "N", "N", "", "N", "N", "N", "22-JUN-2013", "23-SEP-2012", "29-SEP-2012", "N"]
["CDISCPILOT01", "707", "1037", "N", "", "", "", null, "", null, "", null, "", null, "", null, null, "", "", null, "", "", "", "", "", "", "", "", "", "", "", "", ""]
["CDISCPILOT01", "707", "1206", "Y", "E03", "BLOOD CREATINE PHOSPHOKINASE INCREASED", "CPK INCREASE", null, "BLOOD CREATINE PHOSPHOKINASE INCREASED", null, "HLT_0404", null, "HLGT_0008", null, "INVESTIGATIONS", null, 2, "No", "", 3, "NOT RECOVERED/NOT RESOLVED", "N", "N", "N", "N", "", "N", "N", "N", "27-NOV-2013", "26-NOV-2013", "09-DEC-2013", "N"]
["CDISCPILOT01", "707", "1206", "Y", "E03", "BLOOD CREATINE PHOSPHOKINASE INCREASED", "CPK INCREASE", null, "BLOOD CREATINE PHOSPHOKINASE INCREASED", null, "HLT_0404", null, "HLGT_0008", null, "INVESTIGATIONS", null, 2, "No", "", 3, "RECOVERED/RESOLVED", "N", "N", "N", "N", "", "N", "N", "N", "23-DEC-2013", "26-NOV-2013", "09-DEC-2013", "N"]
["CDISCPILOT01", "707", "1206", "Y", "E04", "SINUS ARRHYTHMIA", "SINUS ARRHYTHMIA", null, "SINUS ARRHYTHMIA", null, "HLT_0094", null, "HLGT_0630", null, "CARDIAC DISORDERS", null, 1, "No", "", 3, "NOT RECOVERED/NOT RESOLVED", "N", "N", "N", "N", "", "N", "N", "N", "25-NOV-2013", "25-NOV-2013", "23-DEC-2013", "N"]
["CDISCPILOT01", "707", "1206", "Y", "E04", "SINUS ARRHYTHMIA", "SINUS ARRHYTHMIA", null, "SINUS ARRHYTHMIA", null, "HLT_0094", null, "HLGT_0630", null, "CARDIAC DISORDERS", null, 1, "No", "", 3, "RECOVERED/RESOLVED", "N", "N", "N", "N", "", "N", "N", "N", "19-JAN-2014", "25-NOV-2013", "23-DEC-2013", "N"]
["CDISCPILOT01", "707", "1206", "Y", "E05", "POSTNASAL DRIP", "POSTNASAL DRIP", null, "POSTNASAL DRIP", null, "HLT_0172", null, "HLGT_0032", null, "RESPIRATORY, THORACIC AND MEDIASTINAL DISORDERS", null, 1, "No", "", 1, "NOT RECOVERED/NOT RESOLVED", "N", "N", "N", "N", "", "N", "N", "N", "09-DEC-2013", "03-DEC-2013", "10-DEC-2013", "N"]
["CDISCPILOT01", "707", "1206", "Y", "E05", "POSTNASAL DRIP", "POSTNASAL DRIP", null, "POSTNASAL DRIP", null, "HLT_0172", null, "HLGT_0032", null, "RESPIRATORY, THORACIC AND MEDIASTINAL DISORDERS", null, 1, "No", "", 1, "RECOVERED/RESOLVED", "N", "N", "N", "N", "", "N", "N", "N", "23-DEC-2013", "03-DEC-2013", "10-DEC-2013", "N"]
["CDISCPILOT01", "707", "1206", "Y", "E06", "CONJUNCTIVITIS", "CONJUNCTIVITIS", null, "CONJUNCTIVITIS", null, "HLT_0584", null, "HLGT_0335", null, "EYE DISORDERS", null, 2, "No", "", 2, "NOT RECOVERED/NOT RESOLVED", "N", "N", "N", "N", "", "N", "N", "N", "16-FEB-2014", "08-FEB-2014", "22-FEB-2014", "N"]
["CDISCPILOT01", "707", "1206", "Y", "E06", "CONJUNCTIVITIS", "CONJUNCTIVITIS", null, "CONJUNCTIVITIS", null, "HLT_0584", null, "HLGT_0335", null, "EYE DISORDERS", null, 2, "No", "", 2, "RECOVERED/RESOLVED", "N", "N", "N", "N", "", "N", "N", "N", "16-MAR-2014", "08-FEB-2014", "22-FEB-2014", "N"]
["CDISCPILOT01", "707", "1276", "N", "", "", "", null, "", null, "", null, "", null, "", null, null, "", "", null, "", "", "", "", "", "", "", "", "", "", "", "", ""]
["CDISCPILOT01", "707", "1430", "N", "", "", "", null, "", null, "", null, "", null, "", null, null, "", "", null, "", "", "", "", "", "", "", "", "", "", "", "", ""]
["CDISCPILOT01", "707", "1434", "N", "", "", "", null, "", null, "", null, "", null, "", null, null, "", "", null, "", "", "", "", "", "", "", "", "", "", "", "", ""]
["CDISCPILOT01", "708", "1013", "N", "", "", "", null, "", null, "", null, "", null, "", null, null, "", "", null, "", "", "", "", "", "", "", "", "", "", "", "", ""]
["CDISCPILOT01", "708", "1019", "Y", "E02", "HEADACHE", "FRONTAL HEADACHE", null, "HEADACHE", null, "HLT_0064", null, "HLGT_0344", null, "NERVOUS SYSTEM DISORDERS", null, 3, "No", "", 3, "RECOVERED/RESOLVED", "N", "N", "N", "N", "", "N", "N", "N", "23-JAN-2014", "31-DEC-2013", "31-DEC-2013", "N"]
["CDISCPILOT01", "708", "1019", "Y", "E03", "STUPOR", "STUPOR", null, "STUPOR", null, "HLT_0595", null, "HLGT_0513", null, "NERVOUS SYSTEM DISORDERS", null, 3, "No", "", 3, "RECOVERED/RESOLVED", "N", "N", "N", "N", "", "N", "N", "N", "23-JAN-2014", "01-JAN-2014", "01-JAN-2014", "N"]
["CDISCPILOT01", "708", "1019", "Y", "E04", "TRANSIENT ISCHAEMIC ATTACK", "TRANSIENT ISCHEMIC ATTACKS", null, "TRANSIENT ISCHAEMIC ATTACK", null, "HLT_0041", null, "HLGT_0433", null, "NERVOUS SYSTEM DISORDERS", null, 3, "No", "", 3, "RECOVERED/RESOLVED", "N", "N", "N", "N", "", "N", "N", "N", "23-JAN-2014", "01-JAN-2014", "01-JAN-2014", "N"]
["CDISCPILOT01", "708", "1019", "Y", "E05", "VISION BLURRED", "BLURRED VISION", null, "VISION BLURRED", null, "HLT_0120", null, "HLGT_0598", null, "EYE DISORDERS", null, 1, "No", "", 3, "RECOVERED/RESOLVED", "N", "N", "N", "N", "", "N", "N", "N", "23-JAN-2014", "01-JAN-2014", "01-JAN-2014", "N"]
["CDISCPILOT01", "708", "1019", "Y", "E06", "DIZZINESS", "DIZZINESS", null, "DIZZINESS", null, "HLT_0619", null, "HLGT_0751", null, "NERVOUS SYSTEM DISORDERS", null, 1, "No", "", 3, "RECOVERED/RESOLVED", "N", "N", "N", "N", "", "N", "N", "N", "23-JAN-2014", "01-JAN-2014", "01-JAN-2014", "N"]
["CDISCPILOT01", "708", "1032", "Y", "E05", "APPLICATION SITE VESICLES", "APPLICATION SITE BLISTER", null, "APPLICATION SITE VESICLES", null, "HLT_0180", null, "HLGT_0576", null, "GENERAL DISORDERS AND ADMINISTRATION SITE CONDITIONS", null, 2, "No", "", 4, "RECOVERED/RESOLVED", "N", "N", "N", "N", "", "N", "N", "N", "09-MAR-2013", "26-FEB-2013", "09-MAR-2013", "N"]
["CDISCPILOT01", "708", "1054", "N", "", "", "", null, "", null, "", null, "", null, "", null, null, "", "", null, "", "", "", "", "", "", "", "", "", "", "", "", ""]
["CDISCPILOT01", "708", "1067", "N", "", "", "", null, "", null, "", null, "", null, "", null, null, "", "", null, "", "", "", "", "", "", "", "", "", "", "", "", ""]
["CDISCPILOT01", "708", "1084", "Y", "E02", "DIZZINESS", "DIZZINESS", null, "DIZZINESS", null, "HLT_0619", null, "HLGT_0751", null, "NERVOUS SYSTEM DISORDERS", null, 1, "No", "", 3, "NOT RECOVERED/NOT RESOLVED", "N", "N", "N", "N", "", "N", "N", "N", "23-MAY-2013", "23-MAY-2013", "23-MAY-2013", "N"]
["CDISCPILOT01", "708", "1084", "Y", "E02", "DIZZINESS", "DIZZINESS", null, "DIZZINESS", null, "HLT_0619", null, "HLGT_0751", null, "NERVOUS SYSTEM DISORDERS", null, 1, "No", "", 3, "RECOVERED/RESOLVED", "N", "N", "N", "N", "", "N", "N", "N", "09-JUN-2013", "23-MAY-2013", "23-MAY-2013", "N"]
["CDISCPILOT01", "708", "1084", "Y", "E06", "SINUS BRADYCARDIA", "SINUS BRADYCARDIA", null, "SINUS BRADYCARDIA", null, "HLT_0644", null, "HLGT_0500", null, "CARDIAC DISORDERS", null, 1, "No", "", 2, "NOT RECOVERED/NOT RESOLVED", "N", "N", "N", "N", "", "N", "N", "N", "23-JUN-2013", "23-JUN-2013", "23-JUN-2013", "N"]
["CDISCPILOT01", "708", "1084", "Y", "E06", "SINUS BRADYCARDIA", "SINUS BRADYCARDIA", null, "SINUS BRADYCARDIA", null, "HLT_0644", null, "HLGT_0500", null, "CARDIAC DISORDERS", null, 1, "No", "", 2, "RECOVERED/RESOLVED", "N", "N", "N", "N", "", "N", "N", "N", "07-JUL-2013", "23-JUN-2013", "23-JUN-2013", "N"]
["CDISCPILOT01", "708", "1084", "Y", "E07", "MYOCARDIAL INFARCTION", "MYOCARDIAL INFARCTION", null, "MYOCARDIAL INFARCTION", null, "HLT_0649", null, "HLGT_0688", null, "CARDIAC DISORDERS", null, 1, "No", "", 2, "NOT RECOVERED/NOT RESOLVED", "N", "N", "N", "N", "", "N", "N", "N", "09-JUN-2013", "09-JUN-2013", "09-JUN-2013", "N"]
["CDISCPILOT01", "708", "1084", "Y", "E07", "MYOCARDIAL INFARCTION", "MYOCARDIAL INFARCTION", null, "MYOCARDIAL INFARCTION", null, "HLT_0649", null, "HLGT_0688", null, "CARDIAC DISORDERS", null, 1, "No", "", 2, "RECOVERED/RESOLVED", "N", "N", "N", "N", "", "N", "N", "N", "11-JUN-2013", "09-JUN-2013", "09-JUN-2013", "N"]
["CDISCPILOT01", "708", "1087", "Y", "E02", "HEADACHE", "HEADACHE", null, "HEADACHE", null, "HLT_0064", null, "HLGT_0344", null, "NERVOUS SYSTEM DISORDERS", null, 1, "No", "", 1, "NOT RECOVERED/NOT RESOLVED", "N", "N", "N", "N", "", "N", "N", "N", "16-FEB-2013", "16-FEB-2013", "", "Y"]
["CDISCPILOT01", "708", "1087", "Y", "E03", "DIZZINESS", "DIZZINESS", null, "DIZZINESS", null, "HLT_0619", null, "HLGT_0751", null, "NERVOUS SYSTEM DISORDERS", null, 1, "No", "", 3, "RECOVERED/RESOLVED", "N", "N", "N", "N", "", "N", "N", "N", "16-FEB-2013", "04-FEB-2013", "08-FEB-2013", "N"]
["CDISCPILOT01", "708", "1087", "Y", "E05", "HEART RATE IRREGULAR", "HEARTBEATS IRREGULAR", null, "HEART RATE IRREGULAR", null, "HLT_0765", null, "HLGT_0140", null, "INVESTIGATIONS", null, 1, "No", "", 3, "NOT RECOVERED/NOT RESOLVED", "N", "N", "N", "N", "", "N", "N", "N", "19-JAN-2013", "19-JAN-2013", "19-JAN-2013", "N"]
["CDISCPILOT01", "708", "1087", "Y", "E05", "HEART RATE IRREGULAR", "HEARTBEATS IRREGULAR", null, "HEART RATE IRREGULAR", null, "HLT_0765", null, "HLGT_0140", null, "INVESTIGATIONS", null, 1, "No", "", 3, "RECOVERED/RESOLVED", "N", "N", "N", "N", "", "N", "N", "N", "16-FEB-2013", "19-JAN-2013", "19-JAN-2013", "N"]
["CDISCPILOT01", "708", "1087", "Y", "E06", "HEART RATE IRREGULAR", "HEARTBEATS IRREGULAR", null, "HEART RATE IRREGULAR", null, "HLT_0765", null, "HLGT_0140", null, "INVESTIGATIONS", null, 1, "No", "", 3, "NOT RECOVERED/NOT RESOLVED", "N", "N", "N", "N", "", "N", "N", "N", "16-MAR-2013", "16-MAR-2013", "16-MAR-2013", "N"]
["CDISCPILOT01", "708", "1087", "Y", "E06", "HEART RATE IRREGULAR", "HEARTBEATS IRREGULAR", null, "HEART RATE IRREGULAR", null, "HLT_0765", null, "HLGT_0140", null, "INVESTIGATIONS", null, 1, "No", "", 3, "RECOVERED/RESOLVED", "N", "N", "N", "N", "", "N", "N", "N", "10-APR-2013", "16-MAR-2013", "16-MAR-2013", "N"]
["CDISCPILOT01", "708", "1104", "N", "", "", "", null, "", null, "", null, "", null, "", null, null, "", "", null, "", "", "", "", "", "", "", "", "", "", "", "", ""]
["CDISCPILOT01", "708", "1158", "Y", "E05", "AGITATION", "AGITATION", null, "AGITATION", null, "HLT_0140", null, "HLGT_0170", null, "PSYCHIATRIC DISORDERS", null, 1, "No", "", 2, "NOT RECOVERED/NOT RESOLVED", "N", "N", "N", "N", "", "N", "N", "N", "26-FEB-2014", "25-FEB-2014", "", "Y"]
["CDISCPILOT01", "708", "1158", "Y", "E07", "ERYTHEMA", "ERYTHEMA", null, "ERYTHEMA", null, "HLT_0284", null, "HLGT_0192", null, "SKIN AND SUBCUTANEOUS TISSUE DISORDERS", null, 1, "No", "", 4, "RECOVERED/RESOLVED", "N", "N", "N", "N", "", "N", "N", "N", "22-MAR-2014", "22-MAR-2014", "22-MAR-2014", "N"]
["CDISCPILOT01", "708", "1171", "N", "", "", "", null, "", null, "", null, "", null, "", null, null, "", "", null, "", "", "", "", "", "", "", "", "", "", "", "", ""]
["CDISCPILOT01", "708", "1178", "Y", "E03", "FLANK PAIN", "FLANK PAIN", null, "FLANK PAIN", null, "HLT_0484", null, "HLGT_0543", null, "MUSCULOSKELETAL AND CONNECTIVE TISSUE DISORDERS", null, 1, "No", "", 1, "NOT RECOVERED/NOT RESOLVED", "N", "N", "N", "N", "", "N", "N", "N", "19-DEC-2013", "19-DEC-2013", "", "Y"]
["CDISCPILOT01", "708", "1178", "Y", "E05", "NASOPHARYNGITIS", "COLD", null, "NASOPHARYNGITIS", null, "HLT_0036", null, "HLGT_0709", null, "INFECTIONS AND INFESTATIONS", null, 1, "No", "", 1, "RECOVERED/RESOLVED", "N", "N", "N", "N", "", "N", "N", "N", "09-MAR-2014", "01-MAR-2014", "08-MAR-2014", "N"]
["CDISCPILOT01", "708", "1178", "Y", "E06", "APPLICATION SITE PRURITUS", "APPLICATION SITE ITCHING", null, "APPLICATION SITE PRURITUS", null, "HLT_0317", null, "HLGT_0338", null, "GENERAL DISORDERS AND ADMINISTRATION SITE CONDITIONS", null, 1, "No", "", 4, "NOT RECOVERED/NOT RESOLVED", "N", "N", "N", "N", "", "N", "N", "N", "09-MAR-2014", "09-MAR-2014", "06-APR-2014", "N"]
["CDISCPILOT01", "708", "1178", "Y", "E06", "APPLICATION SITE PRURITUS", "APPLICATION SITE ITCHING", null, "APPLICATION SITE PRURITUS", null, "HLT_0317", null, "HLGT_0338", null, "GENERAL DISORDERS AND ADMINISTRATION SITE CONDITIONS", null, 1, "No", "", 4, "RECOVERED/RESOLVED", "N", "N", "N", "N", "", "N", "N", "N", "06-APR-2014", "09-MAR-2014", "06-APR-2014", "N"]
["CDISCPILOT01", "708", "1178", "Y", "E08", "VENTRICULAR SEPTAL DEFECT", "VENTRICULAR SEPTAL DEFECT", null, "VENTRICULAR SEPTAL DEFECT", null, "HLT_0589", null, "HLGT_0747", null, "CONGENITAL, FAMILIAL AND GENETIC DISORDERS", null, 1, "No", "", 1, "NOT RECOVERED/NOT RESOLVED", "N", "N", "N", "N", "", "N", "N", "N", "09-MAR-2014", "09-MAR-2014", "", "Y"]
["CDISCPILOT01", "708", "1178", "Y", "E09", "DIZZINESS", "LIGHT-HEADED", null, "DIZZINESS", null, "HLT_0619", null, "HLGT_0751", null, "NERVOUS SYSTEM DISORDERS", null, 3, "No", "", 3, "RECOVERED/RESOLVED", "N", "N", "N", "N", "", "Y", "N", "N", "06-APR-2014", "24-MAR-2014", "26-MAR-2014", "N"]
["CDISCPILOT01", "708", "1178", "Y", "E10", "ATRIAL FIBRILLATION", "ATRIAL FIBRILLATION", null, "ATRIAL FIBRILLATION", null, "HLT_0365", null, "HLGT_0012", null, "CARDIAC DISORDERS", null, 3, "No", "", 3, "RECOVERED/RESOLVED", "N", "N", "N", "N", "", "Y", "N", "N", "06-APR-2014", "24-MAR-2014", "26-MAR-2014", "N"]
["CDISCPILOT01", "708", "1178", "Y", "E11", "CYSTITIS", "BLADDER INFECTION", null, "CYSTITIS", null, "HLT_0739", null, "HLGT_0129", null, "INFECTIONS AND INFESTATIONS", null, 1, "No", "", 2, "RECOVERED/RESOLVED", "N", "N", "N", "N", "", "N", "N", "N", "06-APR-2014", "24-MAR-2014", "28-MAR-2014", "N"]
["CDISCPILOT01", "708", "1178", "Y", "E13", "ALCOHOL USE", "ALCOHOL USE", null, "ALCOHOL USE", null, "HLT_0138", null, "HLGT_0182", null, "SOCIAL CIRCUMSTANCES", null, 1, "No", "", 1, "RECOVERED/RESOLVED", "N", "N", "N", "N", "", "N", "N", "N", "06-APR-2014", "24-MAR-2014", "24-MAR-2014", "N"]
["CDISCPILOT01", "708", "1184", "N", "", "", "", null, "", null, "", null, "", null, "", null, null, "", "", null, "", "", "", "", "", "", "", "", "", "", "", "", ""]
["CDISCPILOT01", "708", "1213", "Y", "E03", "ATRIAL FIBRILLATION", "ATRIAL FIBRILLATION", null, "ATRIAL FIBRILLATION", null, "HLT_0365", null, "HLGT_0012", null, "CARDIAC DISORDERS", null, 1, "No", "", 3, "NOT RECOVERED/NOT RESOLVED", "N", "N", "N", "N", "", "N", "N", "N", "22-FEB-2013", "22-FEB-2013", "22-FEB-2013", "N"]
["CDISCPILOT01", "708", "1213", "Y", "E03", "ATRIAL FIBRILLATION", "ATRIAL FIBRILLATION", null, "ATRIAL FIBRILLATION", null, "HLT_0365", null, "HLGT_0012", null, "CARDIAC DISORDERS", null, 1, "No", "", 3, "RECOVERED/RESOLVED", "N", "N", "N", "N", "", "N", "N", "N", "26-FEB-2013", "22-FEB-2013", "22-FEB-2013", "N"]
["CDISCPILOT01", "708", "1216", "Y", "E01", "APPLICATION SITE PRURITUS", "APPLICATION SITE ITCHING", null, "APPLICATION SITE PRURITUS", null, "HLT_0317", null, "HLGT_0338", null, "GENERAL DISORDERS AND ADMINISTRATION SITE CONDITIONS", null, 1, "No", "", 4, "NOT RECOVERED/NOT RESOLVED", "N", "N", "N", "N", "", "N", "N", "N", "08-NOV-2012", "06-NOV-2012", "", "Y"]
["CDISCPILOT01", "708", "1216", "Y", "E02", "APPLICATION SITE SWELLING", "APPLICATION SITE SWELLING", null, "APPLICATION SITE SWELLING", null, "HLT_0105", null, "HLGT_0236", null, "GENERAL DISORDERS AND ADMINISTRATION SITE CONDITIONS", null, 1, "No", "", 4, "NOT RECOVERED/NOT RESOLVED", "N", "N", "N", "N", "", "N", "N", "N", "22-NOV-2012", "22-NOV-2012", "", "Y"]
["CDISCPILOT01", "708", "1216", "Y", "E05", "APPLICATION SITE ERYTHEMA", "APPLICATION SITE REDNESS", null, "APPLICATION SITE ERYTHEMA", null, "HLT_0617", null, "HLGT_0152", null, "GENERAL DISORDERS AND ADMINISTRATION SITE CONDITIONS", null, 1, "No", "", 4, "NOT RECOVERED/NOT RESOLVED", "N", "N", "N", "N", "", "N", "N", "N", "08-NOV-2012", "06-NOV-2012", "13-DEC-2012", "N"]
["CDISCPILOT01", "708", "1216", "Y", "E05", "APPLICATION SITE ERYTHEMA", "APPLICATION SITE REDNESS", null, "APPLICATION SITE ERYTHEMA", null, "HLT_0617", null, "HLGT_0152", null, "GENERAL DISORDERS AND ADMINISTRATION SITE CONDITIONS", null, 1, "No", "", 4, "RECOVERED/RESOLVED", "N", "N", "N", "N", "", "N", "N", "N", "09-JAN-2013", "06-NOV-2012", "13-DEC-2012", "N"]
["CDISCPILOT01", "708", "1236", "N", "", "", "", null, "", null, "", null, "", null, "", null, null, "", "", null, "", "", "", "", "", "", "", "", "", "", "", "", ""]
["CDISCPILOT01", "708", "1242", "N", "", "", "", null, "", null, "", null, "", null, "", null, null, "", "", null, "", "", "", "", "", "", "", "", "", "", "", "", ""]
["CDISCPILOT01", "708", "1253", "Y", "E02", "HEART RATE INCREASED", "HEART RATE INCREASED", null, "HEART RATE INCREASED", null, "HLT_0646", null, "HLGT_0673", null, "INVESTIGATIONS", null, 1, "No", "", 3, "NOT RECOVERED/NOT RESOLVED", "N", "N", "N", "N", "", "N", "N", "N", "07-MAY-2013", "07-MAY-2013", "10-MAY-2013", "N"]
["CDISCPILOT01", "708", "1253", "Y", "E02", "HEART RATE INCREASED", "HEART RATE INCREASED", null, "HEART RATE INCREASED", null, "HLT_0646", null, "HLGT_0673", null, "INVESTIGATIONS", null, 1, "No", "", 3, "RECOVERED/RESOLVED", "N", "N", "N", "N", "", "N", "N", "N", "21-MAY-2013", "07-MAY-2013", "10-MAY-2013", "N"]
["CDISCPILOT01", "708", "1253", "Y", "E03", "COUGH", "COUGH", null, "COUGH", null, "HLT_0701", null, "HLGT_0280", null, "RESPIRATORY, THORACIC AND MEDIASTINAL DISORDERS", null, 1, "No", "", 1, "NOT RECOVERED/NOT RESOLVED", "N", "N", "N", "N", "", "N", "N", "N", "07-MAY-2013", "06-MAY-2013", "16-MAY-2013", "N"]
["CDISCPILOT01", "708", "1253", "Y", "E03", "COUGH", "COUGH", null, "COUGH", null, "HLT_0701", null, "HLGT_0280", null, "RESPIRATORY, THORACIC AND MEDIASTINAL DISORDERS", null, 1, "No", "", 1, "RECOVERED/RESOLVED", "N", "N", "N", "N", "", "N", "N", "N", "21-MAY-2013", "06-MAY-2013", "16-MAY-2013", "N"]
["CDISCPILOT01", "708", "1253", "Y", "E04", "CONJUNCTIVITIS", "CONJUNCTIVITIS", null, "CONJUNCTIVITIS", null, "HLT_0584", null, "HLGT_0335", null, "EYE DISORDERS", null, 1, "No", "", 1, "NOT RECOVERED/NOT RESOLVED", "N", "N", "N", "N", "", "N", "N", "N", "07-MAY-2013", "06-MAY-2013", "16-MAY-2013", "N"]
["CDISCPILOT01", "708", "1253", "Y", "E04", "CONJUNCTIVITIS", "CONJUNCTIVITIS", null, "CONJUNCTIVITIS", null, "HLT_0584", null, "HLGT_0335", null, "EYE DISORDERS", null, 1, "No", "", 1, "RECOVERED/RESOLVED", "N", "N", "N", "N", "", "N", "N", "N", "21-MAY-2013", "06-MAY-2013", "16-MAY-2013", "N"]
["CDISCPILOT01", "708", "1253", "Y", "E05", "DIZZINESS", "DIZZINESS", null, "DIZZINESS", null, "HLT_0619", null, "HLGT_0751", null, "NERVOUS SYSTEM DISORDERS", null, 1, "No", "", 3, "NOT RECOVERED/NOT RESOLVED", "N", "N", "N", "N", "", "N", "N", "N", "07-JUN-2013", "07-JUN-2013", "07-JUN-2013", "N"]
["CDISCPILOT01", "708", "1253", "Y", "E05", "DIZZINESS", "DIZZINESS", null, "DIZZINESS", null, "HLT_0619", null, "HLGT_0751", null, "NERVOUS SYSTEM DISORDERS", null, 1, "No", "", 3, "RECOVERED/RESOLVED", "N", "N", "N", "N", "", "N", "N", "N", "09-JUN-2013", "07-JUN-2013", "07-JUN-2013", "N"]
["CDISCPILOT01", "708", "1272", "Y", "E05", "VENTRICULAR EXTRASYSTOLES", "VENTRICULAR BIGEMINY", null, "VENTRICULAR EXTRASYSTOLES", null, "HLT_0050", null, "HLGT_0594", null, "CARDIAC DISORDERS", null, 1, "No", "", 2, "NOT RECOVERED/NOT RESOLVED", "N", "N", "N", "N", "", "N", "N", "N", "21-FEB-2013", "21-FEB-2013", "20-MAR-2013", "N"]
["CDISCPILOT01", "708", "1272", "Y", "E05", "VENTRICULAR EXTRASYSTOLES", "VENTRICULAR BIGEMINY", null, "VENTRICULAR EXTRASYSTOLES", null, "HLT_0050", null, "HLGT_0594", null, "CARDIAC DISORDERS", null, 1, "No", "", 2, "RECOVERED/RESOLVED", "N", "N", "N", "N", "", "N", "N", "N", "04-APR-2013", "21-FEB-2013", "20-MAR-2013", "N"]
["CDISCPILOT01", "708", "1272", "Y", "E08", "COUGH", "COUGH", null, "COUGH", null, "HLT_0701", null, "HLGT_0280", null, "RESPIRATORY, THORACIC AND MEDIASTINAL DISORDERS", null, 1, "No", "", 1, "NOT RECOVERED/NOT RESOLVED", "N", "N", "N", "N", "", "N", "N", "N", "07-MAR-2013", "01-MAR-2013", "07-MAR-2013", "N"]
["CDISCPILOT01", "708", "1272", "Y", "E08", "COUGH", "COUGH", null, "COUGH", null, "HLT_0701", null, "HLGT_0280", null, "RESPIRATORY, THORACIC AND MEDIASTINAL DISORDERS", null, 1, "No", "", 1, "RECOVERED/RESOLVED", "N", "N", "N", "N", "", "N", "N", "N", "09-MAR-2013", "01-MAR-2013", "07-MAR-2013", "N"]
["CDISCPILOT01", "708", "1272", "Y", "E09", "NASOPHARYNGITIS", "COLD", null, "NASOPHARYNGITIS", null, "HLT_0036", null, "HLGT_0709", null, "INFECTIONS AND INFESTATIONS", null, 1, "No", "", 1, "NOT RECOVERED/NOT RESOLVED", "N", "N", "N", "N", "", "N", "N", "N", "07-MAR-2013", "01-MAR-2013", "07-MAR-2013", "N"]
["CDISCPILOT01", "708", "1272", "Y", "E09", "NASOPHARYNGITIS", "COLD", null, "NASOPHARYNGITIS", null, "HLT_0036", null, "HLGT_0709", null, "INFECTIONS AND INFESTATIONS", null, 1, "No", "", 1, "RECOVERED/RESOLVED", "N", "N", "N", "N", "", "N", "N", "N", "09-MAR-2013", "01-MAR-2013", "07-MAR-2013", "N"]
["CDISCPILOT01", "708", "1272", "Y", "E10", "HEADACHE", "HEADACHE", null, "HEADACHE", null, "HLT_0064", null, "HLGT_0344", null, "NERVOUS SYSTEM DISORDERS", null, 1, "No", "", 1, "NOT RECOVERED/NOT RESOLVED", "N", "N", "N", "N", "", "N", "N", "N", "07-MAR-2013", "07-MAR-2013", "07-MAR-2013", "N"]
["CDISCPILOT01", "708", "1272", "Y", "E10", "HEADACHE", "HEADACHE", null, "HEADACHE", null, "HLT_0064", null, "HLGT_0344", null, "NERVOUS SYSTEM DISORDERS", null, 1, "No", "", 1, "RECOVERED/RESOLVED", "N", "N", "N", "N", "", "N", "N", "N", "09-MAR-2013", "07-MAR-2013", "07-MAR-2013", "N"]
["CDISCPILOT01", "708", "1272", "Y", "E11", "APPLICATION SITE DERMATITIS", "APPLICATION SITE RASH", null, "APPLICATION SITE DERMATITIS", null, "HLT_0343", null, "HLGT_0241", null, "GENERAL DISORDERS AND ADMINISTRATION SITE CONDITIONS", null, 1, "No", "", 4, "RECOVERED/RESOLVED", "N", "N", "N", "N", "", "N", "N", "N", "07-MAR-2013", "27-FEB-2013", "27-FEB-2013", "N"]
["CDISCPILOT01", "708", "1272", "Y", "E12", "DIARRHOEA", "DIARRHEA", null, "DIARRHOEA", null, "HLT_0148", null, "HLGT_0588", null, "GASTROINTESTINAL DISORDERS", null, 1, "No", "", 1, "RECOVERED/RESOLVED", "N", "N", "N", "N", "", "N", "N", "N", "21-FEB-2013", "11-FEB-2013", "11-FEB-2013", "N"]
["CDISCPILOT01", "708", "1272", "Y", "E13", "MUSCLE SPASMS", "LEG CRAMPS", null, "MUSCLE SPASMS", null, "HLT_0078", null, "HLGT_0750", null, "MUSCULOSKELETAL AND CONNECTIVE TISSUE DISORDERS", null, 3, "No", "", 1, "RECOVERED/RESOLVED", "N", "N", "N", "N", "", "N", "N", "N", "21-FEB-2013", "18-FEB-2013", "18-FEB-2013", "N"]
["CDISCPILOT01", "708", "1272", "Y", "E14", "HOT FLUSH", "HOT FLASHES", null, "HOT FLUSH", null, "HLT_0737", null, "HLGT_0773", null, "VASCULAR DISORDERS", null, 1, "No", "", 1, "RECOVERED/RESOLVED", "N", "N", "N", "N", "", "N", "N", "N", "20-MAR-2013", "19-MAR-2013", "19-MAR-2013", "N"]
["CDISCPILOT01", "708", "1286", "Y", "E04", "MYOCARDIAL INFARCTION", "INFERIOR MYOCARDIAL INFARCTION", null, "MYOCARDIAL INFARCTION", null, "HLT_0649", null, "HLGT_0688", null, "CARDIAC DISORDERS", null, 1, "No", "", 2, "NOT RECOVERED/NOT RESOLVED", "N", "N", "N", "N", "", "N", "N", "N", "23-SEP-2013", "23-SEP-2013", "", "Y"]
["CDISCPILOT01", "708", "1286", "Y", "E06", "APPLICATION SITE PRURITUS", "APPLICATION SITE ITCHING", null, "APPLICATION SITE PRURITUS", null, "HLT_0317", null, "HLGT_0338", null, "GENERAL DISORDERS AND ADMINISTRATION SITE CONDITIONS", null, 1, "No", "", 4, "NOT RECOVERED/NOT RESOLVED", "N", "N", "N", "N", "", "N", "N", "N", "23-SEP-2013", "12-SEP-2013", "", "Y"]
["CDISCPILOT01", "708", "1286", "Y", "E08", "ABDOMINAL PAIN", "ABDOMINAL PAIN", null, "ABDOMINAL PAIN", null, "HLT_0217", null, "HLGT_0419", null, "GASTROINTESTINAL DISORDERS", null, 1, "No", "", 2, "RECOVERED/RESOLVED", "N", "N", "N", "N", "", "N", "N", "N", "23-FEB-2014", "18-FEB-2014", "18-FEB-2014", "N"]
["CDISCPILOT01", "708", "1286", "Y", "E09", "CONSTIPATION", "CONSTIPATION", null, "CONSTIPATION", null, "HLT_0402", null, "HLGT_0635", null, "GASTROINTESTINAL DISORDERS", null, 1, "No", "", 2, "RECOVERED/RESOLVED", "N", "N", "N", "N", "", "N", "N", "N", "23-FEB-2014", "18-FEB-2014", "18-FEB-2014", "N"]
["CDISCPILOT01", "708", "1296", "Y", "E03", "ATRIAL HYPERTROPHY", "LEFT ATRIAL HYPERTROPHY", null, "ATRIAL HYPERTROPHY", null, "HLT_0271", null, "HLGT_0067", null, "CARDIAC DISORDERS", null, 1, "No", "", 2, "NOT RECOVERED/NOT RESOLVED", "N", "N", "N", "N", "", "N", "N", "N", "27-JUN-2013", "27-JUN-2013", "27-JUN-2013", "N"]
["CDISCPILOT01", "708", "1296", "Y", "E03", "ATRIAL HYPERTROPHY", "LEFT ATRIAL HYPERTROPHY", null, "ATRIAL HYPERTROPHY", null, "HLT_0271", null, "HLGT_0067", null, "CARDIAC DISORDERS", null, 1, "No", "", 2, "RECOVERED/RESOLVED", "N", "N", "N", "N", "", "N", "N", "N", "10-JUL-2013", "27-JUN-2013", "27-JUN-2013", "N"]
["CDISCPILOT01", "708", "1296", "Y", "E04", "APPLICATION SITE PRURITUS", "APPLICATION SITE ITCHING", null, "APPLICATION SITE PRURITUS", null, "HLT_0317", null, "HLGT_0338", null, "GENERAL DISORDERS AND ADMINISTRATION SITE CONDITIONS", null, 1, "No", "", 4, "NOT RECOVERED/NOT RESOLVED", "N", "N", "N", "N", "", "N", "N", "N", "04-SEP-2013", "04-SEP-2013", "18-SEP-2013", "N"]
["CDISCPILOT01", "708", "1296", "Y", "E04", "APPLICATION SITE PRURITUS", "APPLICATION SITE ITCHING", null, "APPLICATION SITE PRURITUS", null, "HLT_0317", null, "HLGT_0338", null, "GENERAL DISORDERS AND ADMINISTRATION SITE CONDITIONS", null, 1, "No", "", 4, "RECOVERED/RESOLVED", "N", "N", "N", "N", "", "N", "N", "N", "02-OCT-2013", "04-SEP-2013", "18-SEP-2013", "N"]
["CDISCPILOT01", "708", "1296", "Y", "E05", "APPLICATION SITE VESICLES", "APPLICATION SITE BLISTER", null, "APPLICATION SITE VESICLES", null, "HLT_0180", null, "HLGT_0576", null, "GENERAL DISORDERS AND ADMINISTRATION SITE CONDITIONS", null, 1, "No", "", 4, "NOT RECOVERED/NOT RESOLVED", "N", "N", "N", "N", "", "N", "N", "N", "30-OCT-2013", "04-OCT-2013", "30-OCT-2013", "N"]
["CDISCPILOT01", "708", "1296", "Y", "E05", "APPLICATION SITE VESICLES", "APPLICATION SITE BLISTER", null, "APPLICATION SITE VESICLES", null, "HLT_0180", null, "HLGT_0576", null, "GENERAL DISORDERS AND ADMINISTRATION SITE CONDITIONS", null, 1, "No", "", 4, "RECOVERED/RESOLVED", "N", "N", "N", "N", "", "N", "N", "N", "27-NOV-2013", "04-OCT-2013", "30-OCT-2013", "N"]
["CDISCPILOT01", "708", "1296", "Y", "E07", "PAIN IN EXTREMITY", "PAIN IN THIGH", null, "PAIN IN EXTREMITY", null, "HLT_0213", null, "HLGT_0764", null, "MUSCULOSKELETAL AND CONNECTIVE TISSUE DISORDERS", null, 1, "No", "", 2, "RECOVERED/RESOLVED", "N", "N", "N", "N", "", "N", "N", "N", "12-DEC-2013", "07-DEC-2013", "07-DEC-2013", "N"]
["CDISCPILOT01", "708", "1297", "Y", "E02", "APPLICATION SITE PRURITUS", "APPLICATION SITE ITCHING", null, "APPLICATION SITE PRURITUS", null, "HLT_0317", null, "HLGT_0338", null, "GENERAL DISORDERS AND ADMINISTRATION SITE CONDITIONS", null, 1, "No", "", 4, "NOT RECOVERED/NOT RESOLVED", "N", "N", "N", "N", "", "N", "N", "N", "16-APR-2013", "02-APR-2013", "", "Y"]
["CDISCPILOT01", "708", "1297", "Y", "E03", "APPLICATION SITE SWELLING", "APPLICATION SITE SWELLING", null, "APPLICATION SITE SWELLING", null, "HLT_0105", null, "HLGT_0236", null, "GENERAL DISORDERS AND ADMINISTRATION SITE CONDITIONS", null, 1, "No", "", 4, "NOT RECOVERED/NOT RESOLVED", "N", "N", "N", "N", "", "N", "N", "N", "16-APR-2013", "02-APR-2013", "", "Y"]
["CDISCPILOT01", "708", "1297", "Y", "E04", "SINUS BRADYCARDIA", "SINUS BRADYCARDIA", null, "SINUS BRADYCARDIA", null, "HLT_0644", null, "HLGT_0500", null, "CARDIAC DISORDERS", null, 1, "No", "", 2, "NOT RECOVERED/NOT RESOLVED", "N", "N", "N", "N", "", "N", "N", "N", "08-MAY-2013", "08-MAY-2013", "", "Y"]
["CDISCPILOT01", "708", "1316", "Y", "E04", "APPLICATION SITE ERYTHEMA", "APPLICATION SITE REDNESS", null, "APPLICATION SITE ERYTHEMA", null, "HLT_0617", null, "HLGT_0152", null, "GENERAL DISORDERS AND ADMINISTRATION SITE CONDITIONS", null, 1, "No", "", 4, "NOT RECOVERED/NOT RESOLVED", "N", "N", "N", "N", "", "N", "N", "N", "15-FEB-2014", "15-FEB-2014", "", "Y"]
["CDISCPILOT01", "708", "1316", "Y", "E05", "HEADACHE", "HEADACHE", null, "HEADACHE", null, "HLT_0064", null, "HLGT_0344", null, "NERVOUS SYSTEM DISORDERS", null, 1, "No", "", 3, "NOT RECOVERED/NOT RESOLVED", "N", "N", "N", "N", "", "N", "N", "N", "15-FEB-2014", "29-JAN-2014", "", "Y"]
["CDISCPILOT01", "708", "1336", "Y", "E06", "DIZZINESS", "LIGHTHEADEDNESS", null, "DIZZINESS", null, "HLT_0619", null, "HLGT_0751", null, "NERVOUS SYSTEM DISORDERS", null, 1, "No", "", 3, "RECOVERED/RESOLVED", "N", "N", "N", "N", "", "N", "N", "N", "21-DEC-2012", "18-DEC-2012", "18-DEC-2012", "N"]
["CDISCPILOT01", "708", "1336", "Y", "E08", "APPLICATION SITE PRURITUS", "APPLICATION SITE ITCHING", null, "APPLICATION SITE PRURITUS", null, "HLT_0317", null, "HLGT_0338", null, "GENERAL DISORDERS AND ADMINISTRATION SITE CONDITIONS", null, 1, "No", "", 4, "RECOVERED/RESOLVED", "N", "N", "N", "N", "", "N", "N", "N", "15-JAN-2013", "12-JAN-2013", "12-JAN-2013", "N"]
["CDISCPILOT01", "708", "1336", "Y", "E09", "DIZZINESS", "LIGHT HEADEDNESS", null, "DIZZINESS", null, "HLT_0619", null, "HLGT_0751", null, "NERVOUS SYSTEM DISORDERS", null, 1, "No", "", 3, "RECOVERED/RESOLVED", "N", "N", "N", "N", "", "N", "N", "N", "27-FEB-2013", "02-FEB-2013", "02-FEB-2013", "N"]
["CDISCPILOT01", "708", "1336", "Y", "E10", "APPLICATION SITE PRURITUS", "APPLICATION SITE ITCHING", null, "APPLICATION SITE PRURITUS", null, "HLT_0317", null, "HLGT_0338", null, "GENERAL DISORDERS AND ADMINISTRATION SITE CONDITIONS", null, 1, "No", "", 4, "NOT RECOVERED/NOT RESOLVED", "N", "N", "N", "N", "", "N", "N", "N", "23-APR-2013", "10-APR-2013", "05-JUN-2013", "N"]
["CDISCPILOT01", "708", "1336", "Y", "E10", "APPLICATION SITE PRURITUS", "APPLICATION SITE ITCHING", null, "APPLICATION SITE PRURITUS", null, "HLT_0317", null, "HLGT_0338", null, "GENERAL DISORDERS AND ADMINISTRATION SITE CONDITIONS", null, 1, "No", "", 4, "RECOVERED/RESOLVED", "N", "N", "N", "N", "", "N", "N", "N", "05-JUL-2013", "10-APR-2013", "05-JUN-2013", "N"]
["CDISCPILOT01", "708", "1336", "Y", "E11", "APPLICATION SITE ERYTHEMA", "APPLICATION SITE REDNESS", null, "APPLICATION SITE ERYTHEMA", null, "HLT_0617", null, "HLGT_0152", null, "GENERAL DISORDERS AND ADMINISTRATION SITE CONDITIONS", null, 1, "No", "", 4, "NOT RECOVERED/NOT RESOLVED", "N", "N", "N", "N", "", "N", "N", "N", "23-APR-2013", "10-APR-2013", "05-JUN-2013", "N"]
["CDISCPILOT01", "708", "1336", "Y", "E11", "APPLICATION SITE ERYTHEMA", "APPLICATION SITE REDNESS", null, "APPLICATION SITE ERYTHEMA", null, "HLT_0617", null, "HLGT_0152", null, "GENERAL DISORDERS AND ADMINISTRATION SITE CONDITIONS", null, 1, "No", "", 4, "RECOVERED/RESOLVED", "N", "N", "N", "N", "", "N", "N", "N", "05-JUL-2013", "10-APR-2013", "05-JUN-2013", "N"]
["CDISCPILOT01", "708", "1342", "N", "", "", "", null, "", null, "", null, "", null, "", null, null, "", "", null, "", "", "", "", "", "", "", "", "", "", "", "", ""]
["CDISCPILOT01", "708", "1347", "Y", "E02", "PRURITUS", "ITCHING", null, "PRURITUS", null, "HLT_0778", null, "HLGT_0695", null, "SKIN AND SUBCUTANEOUS TISSUE DISORDERS", null, 1, "No", "", 4, "NOT RECOVERED/NOT RESOLVED", "N", "N", "N", "N", "", "N", "N", "N", "13-JUN-2013", "13-JUN-2013", "25-JUN-2013", "N"]
["CDISCPILOT01", "708", "1347", "Y", "E02", "PRURITUS", "ITCHING", null, "PRURITUS", null, "HLT_0778", null, "HLGT_0695", null, "SKIN AND SUBCUTANEOUS TISSUE DISORDERS", null, 1, "No", "", 4, "RECOVERED/RESOLVED", "N", "N", "N", "N", "", "N", "N", "N", "02-AUG-2013", "13-JUN-2013", "25-JUN-2013", "N"]
["CDISCPILOT01", "708", "1347", "Y", "E03", "ERYTHEMA", "ERYTHEMA", null, "ERYTHEMA", null, "HLT_0284", null, "HLGT_0192", null, "SKIN AND SUBCUTANEOUS TISSUE DISORDERS", null, 2, "No", "", 4, "NOT RECOVERED/NOT RESOLVED", "N", "N", "N", "N", "", "N", "N", "N", "13-JUN-2013", "13-JUN-2013", "25-JUN-2013", "N"]
["CDISCPILOT01", "708", "1347", "Y", "E03", "ERYTHEMA", "ERYTHEMA", null, "ERYTHEMA", null, "HLT_0284", null, "HLGT_0192", null, "SKIN AND SUBCUTANEOUS TISSUE DISORDERS", null, 2, "No", "", 4, "RECOVERED/RESOLVED", "N", "N", "N", "N", "", "N", "N", "N", "02-AUG-2013", "13-JUN-2013", "25-JUN-2013", "N"]
["CDISCPILOT01", "708", "1347", "Y", "E04", "APPLICATION SITE ERYTHEMA", "APPLICATION SITE REDNESS", null, "APPLICATION SITE ERYTHEMA", null, "HLT_0617", null, "HLGT_0152", null, "GENERAL DISORDERS AND ADMINISTRATION SITE CONDITIONS", null, 2, "No", "", 4, "NOT RECOVERED/NOT RESOLVED", "N", "N", "N", "N", "", "N", "N", "N", "13-JUN-2013", "13-JUN-2013", "25-JUN-2013", "N"]
["CDISCPILOT01", "708", "1347", "Y", "E04", "APPLICATION SITE ERYTHEMA", "APPLICATION SITE REDNESS", null, "APPLICATION SITE ERYTHEMA", null, "HLT_0617", null, "HLGT_0152", null, "GENERAL DISORDERS AND ADMINISTRATION SITE CONDITIONS", null, 2, "No", "", 4, "RECOVERED/RESOLVED", "N", "N", "N", "N", "", "N", "N", "N", "02-AUG-2013", "13-JUN-2013", "25-JUN-2013", "N"]
["CDISCPILOT01", "708", "1347", "Y", "E05", "APPLICATION SITE SWELLING", "APPLICATION SITE SWELLING", null, "APPLICATION SITE SWELLING", null, "HLT_0105", null, "HLGT_0236", null, "GENERAL DISORDERS AND ADMINISTRATION SITE CONDITIONS", null, 2, "No", "", 4, "NOT RECOVERED/NOT RESOLVED", "N", "N", "N", "N", "", "N", "N", "N", "13-JUN-2013", "13-JUN-2013", "25-JUN-2013", "N"]
["CDISCPILOT01", "708", "1347", "Y", "E05", "APPLICATION SITE SWELLING", "APPLICATION SITE SWELLING", null, "APPLICATION SITE SWELLING", null, "HLT_0105", null, "HLGT_0236", null, "GENERAL DISORDERS AND ADMINISTRATION SITE CONDITIONS", null, 2, "No", "", 4, "RECOVERED/RESOLVED", "N", "N", "N", "N", "", "N", "N", "N", "02-AUG-2013", "13-JUN-2013", "25-JUN-2013", "N"]
["CDISCPILOT01", "708", "1348", "Y", "E04", "MYOCARDIAL INFARCTION", "ANTEROSEPTAL INFARCTION", null, "MYOCARDIAL INFARCTION", null, "HLT_0649", null, "HLGT_0688", null, "CARDIAC DISORDERS", null, 1, "No", "", 3, "NOT RECOVERED/NOT RESOLVED", "N", "N", "N", "N", "", "N", "N", "N", "19-AUG-2013", "18-AUG-2013", "31-AUG-2013", "N"]
["CDISCPILOT01", "708", "1348", "Y", "E04", "MYOCARDIAL INFARCTION", "ANTEROSEPTAL INFARCTION", null, "MYOCARDIAL INFARCTION", null, "HLT_0649", null, "HLGT_0688", null, "CARDIAC DISORDERS", null, 1, "No", "", 3, "RECOVERED/RESOLVED", "N", "N", "N", "N", "", "N", "N", "N", "02-SEP-2013", "18-AUG-2013", "31-AUG-2013", "N"]
["CDISCPILOT01", "708", "1348", "Y", "E05", "APPLICATION SITE PRURITUS", "APPLICATION SITE ITCHING", null, "APPLICATION SITE PRURITUS", null, "HLT_0317", null, "HLGT_0338", null, "GENERAL DISORDERS AND ADMINISTRATION SITE CONDITIONS", null, 1, "No", "", 4, "NOT RECOVERED/NOT RESOLVED", "N", "N", "N", "N", "", "N", "N", "N", "01-DEC-2013", "01-DEC-2013", "", "Y"]
["CDISCPILOT01", "708", "1352", "N", "", "", "", null, "", null, "", null, "", null, "", null, null, "", "", null, "", "", "", "", "", "", "", "", "", "", "", "", ""]
["CDISCPILOT01", "708", "1353", "Y", "E09", "DIZZINESS", "DIZZINESS", null, "DIZZINESS", null, "HLT_0619", null, "HLGT_0751", null, "NERVOUS SYSTEM DISORDERS", null, 1, "No", "", 2, "NOT RECOVERED/NOT RESOLVED", "N", "N", "N", "N", "", "N", "N", "N", "18-AUG-2013", "18-AUG-2013", "10-SEP-2013", "N"]
["CDISCPILOT01", "708", "1353", "Y", "E09", "DIZZINESS", "DIZZINESS", null, "DIZZINESS", null, "HLT_0619", null, "HLGT_0751", null, "NERVOUS SYSTEM DISORDERS", null, 1, "No", "", 2, "RECOVERED/RESOLVED", "N", "N", "N", "N", "", "N", "N", "N", "10-SEP-2013", "18-AUG-2013", "10-SEP-2013", "N"]
["CDISCPILOT01", "708", "1353", "Y", "E10", "HYPOTENSION", "LOW BLOOD PRESSURE", null, "HYPOTENSION", null, "HLT_0761", null, "HLGT_0412", null, "VASCULAR DISORDERS", null, 1, "No", "", 3, "RECOVERED/RESOLVED", "N", "N", "N", "N", "", "N", "N", "N", "10-SEP-2013", "28-AUG-2013", "10-SEP-2013", "N"]
["CDISCPILOT01", "708", "1372", "Y", "E03", "ATRIOVENTRICULAR BLOCK SECOND DEGREE", "AV BLOCK SECOND DEGREE", null, "ATRIOVENTRICULAR BLOCK SECOND DEGREE", null, "HLT_0415", null, "HLGT_0086", null, "CARDIAC DISORDERS", null, 2, "No", "", 1, "NOT RECOVERED/NOT RESOLVED", "N", "N", "N", "N", "", "N", "N", "N", "10-APR-2013", "10-APR-2013", "", "Y"]
["CDISCPILOT01", "708", "1378", "N", "", "", "", null, "", null, "", null, "", null, "", null, null, "", "", null, "", "", "", "", "", "", "", "", "", "", "", "", ""]
["CDISCPILOT01", "708", "1406", "Y", "E03", "OEDEMA PERIPHERAL", "SWELLING OF LEGS", null, "OEDEMA PERIPHERAL", null, "HLT_0661", null, "HLGT_0137", null, "GENERAL DISORDERS AND ADMINISTRATION SITE CONDITIONS", null, 1, "No", "", 1, "NOT RECOVERED/NOT RESOLVED", "N", "N", "N", "N", "", "N", "N", "N", "16-JUN-2014", "16-JUN-2014", "", "Y"]
["CDISCPILOT01", "708", "1406", "Y", "E04", "OEDEMA PERIPHERAL", "SWELLING OF LEGS", null, "OEDEMA PERIPHERAL", null, "HLT_0661", null, "HLGT_0137", null, "GENERAL DISORDERS AND ADMINISTRATION SITE CONDITIONS", null, 1, "No", "", 1, "NOT RECOVERED/NOT RESOLVED", "N", "N", "N", "N", "", "N", "N", "N", "16-JUN-2014", "16-JUN-2014", "", "Y"]
["CDISCPILOT01", "708", "1428", "Y", "E01", "APPLICATION SITE PRURITUS", "APPLICATION SITE ITCHING", null, "APPLICATION SITE PRURITUS", null, "HLT_0317", null, "HLGT_0338", null, "GENERAL DISORDERS AND ADMINISTRATION SITE CONDITIONS", null, 2, "No", "", 4, "NOT RECOVERED/NOT RESOLVED", "N", "N", "N", "N", "", "N", "N", "N", "10-DEC-2013", "10-DEC-2013", "21-DEC-2013", "N"]
["CDISCPILOT01", "708", "1428", "Y", "E01", "APPLICATION SITE PRURITUS", "APPLICATION SITE ITCHING", null, "APPLICATION SITE PRURITUS", null, "HLT_0317", null, "HLGT_0338", null, "GENERAL DISORDERS AND ADMINISTRATION SITE CONDITIONS", null, 3, "No", "", 4, "RECOVERED/RESOLVED", "N", "N", "N", "N", "", "N", "N", "N", "26-DEC-2013", "10-DEC-2013", "21-DEC-2013", "N"]
["CDISCPILOT01", "708", "1428", "Y", "E02", "APPLICATION SITE ERYTHEMA", "APPLICATION SITE REDNESS", null, "APPLICATION SITE ERYTHEMA", null, "HLT_0617", null, "HLGT_0152", null, "GENERAL DISORDERS AND ADMINISTRATION SITE CONDITIONS", null, 2, "No", "", 4, "NOT RECOVERED/NOT RESOLVED", "N", "N", "N", "N", "", "N", "N", "N", "10-DEC-2013", "10-DEC-2013", "21-DEC-2013", "N"]
["CDISCPILOT01", "708", "1428", "Y", "E02", "APPLICATION SITE ERYTHEMA", "APPLICATION SITE REDNESS", null, "APPLICATION SITE ERYTHEMA", null, "HLT_0617", null, "HLGT_0152", null, "GENERAL DISORDERS AND ADMINISTRATION SITE CONDITIONS", null, 3, "No", "", 4, "RECOVERED/RESOLVED", "N", "N", "N", "N", "", "N", "N", "N", "26-DEC-2013", "10-DEC-2013", "21-DEC-2013", "N"]
["CDISCPILOT01", "708", "1428", "Y", "E03", "APPLICATION SITE WARMTH", "APPLICATION SITE WARMTH", null, "APPLICATION SITE WARMTH", null, "HLT_0260", null, "HLGT_0301", null, "GENERAL DISORDERS AND ADMINISTRATION SITE CONDITIONS", null, 2, "No", "", 4, "NOT RECOVERED/NOT RESOLVED", "N", "N", "N", "N", "", "N", "N", "N", "10-DEC-2013", "10-DEC-2013", "21-DEC-2013", "N"]
["CDISCPILOT01", "708", "1428", "Y", "E03", "APPLICATION SITE WARMTH", "APPLICATION SITE WARMTH", null, "APPLICATION SITE WARMTH", null, "HLT_0260", null, "HLGT_0301", null, "GENERAL DISORDERS AND ADMINISTRATION SITE CONDITIONS", null, 3, "No", "", 4, "RECOVERED/RESOLVED", "N", "N", "N", "N", "", "N", "N", "N", "26-DEC-2013", "10-DEC-2013", "21-DEC-2013", "N"]
["CDISCPILOT01", "708", "1428", "Y", "E04", "EPISTAXIS", "NOSE BLEED", null, "EPISTAXIS", null, "HLT_0386", null, "HLGT_0577", null, "RESPIRATORY, THORACIC AND MEDIASTINAL DISORDERS", null, 1, "No", "", 2, "RECOVERED/RESOLVED", "N", "N", "N", "N", "", "N", "N", "N", "23-NOV-2013", "22-NOV-2013", "22-NOV-2013", "N"]
["CDISCPILOT01", "709", "1001", "N", "", "", "", null, "", null, "", null, "", null, "", null, null, "", "", null, "", "", "", "", "", "", "", "", "", "", "", "", ""]
["CDISCPILOT01", "709", "1007", "Y", "E02", "APPLICATION SITE DERMATITIS", "APPLICATION SITE RASH", null, "APPLICATION SITE DERMATITIS", null, "HLT_0343", null, "HLGT_0241", null, "GENERAL DISORDERS AND ADMINISTRATION SITE CONDITIONS", null, 1, "No", "", 4, "NOT RECOVERED/NOT RESOLVED", "N", "N", "N", "N", "", "N", "N", "N", "18-AUG-2012", "16-AUG-2012", "19-AUG-2012", "N"]
["CDISCPILOT01", "709", "1007", "Y", "E02", "APPLICATION SITE DERMATITIS", "APPLICATION SITE RASH", null, "APPLICATION SITE DERMATITIS", null, "HLT_0343", null, "HLGT_0241", null, "GENERAL DISORDERS AND ADMINISTRATION SITE CONDITIONS", null, 1, "No", "", 4, "RECOVERED/RESOLVED", "N", "N", "N", "N", "", "N", "N", "N", "01-SEP-2012", "16-AUG-2012", "19-AUG-2012", "N"]
["CDISCPILOT01", "709", "1007", "Y", "E03", "APPLICATION SITE DERMATITIS", "APPLICATION SITE RASH", null, "APPLICATION SITE DERMATITIS", null, "HLT_0343", null, "HLGT_0241", null, "GENERAL DISORDERS AND ADMINISTRATION SITE CONDITIONS", null, 3, "No", "", 4, "NOT RECOVERED/NOT RESOLVED", "N", "N", "N", "N", "", "N", "N", "N", "01-SEP-2012", "21-AUG-2012", "", "Y"]
["CDISCPILOT01", "709", "1007", "Y", "E04", "DIARRHOEA", "DIARRHEA", null, "DIARRHOEA", null, "HLT_0148", null, "HLGT_0588", null, "GASTROINTESTINAL DISORDERS", null, 1, "No", "", 3, "RECOVERED/RESOLVED", "N", "N", "N", "N", "", "N", "N", "N", "01-SEP-2012", "30-AUG-2012", "30-AUG-2012", "N"]
