{"datasetJSONCreationDateTime": "2024-02-14T11:46:09", "datasetJSONVersion": "1.1.0", "fileOID": "CDISCPILOT01.ex", "originator": "360i", "studyOID": "CDISCPILOT01", "metaDataVersionOID": "MDV.CDISCPILOT01", "itemGroupOID": "IG.EX", "records": 591, "name": "ex", "label": "Exposure (EX)", "columns": [{"itemOID": "IT.EX.STUDYID", "name": "STUDYID", "label": "Study Identifier", "dataType": "string", "length": 12, "displayFormat": "."}, {"itemOID": "IT.EX.SITEID", "name": "SITEID", "label": "Study Site Identifier", "dataType": "string", "length": 3, "displayFormat": "."}, {"itemOID": "IT.EX.SUBJID", "name": "SUBJID", "label": "Subject Identifier for the Study", "dataType": "string", "length": 4, "displayFormat": "."}, {"itemOID": "IT.EX.EXTRT", "name": "EXTRT", "label": "Treatment Name", "dataType": "string", "length": 10, "displayFormat": "."}, {"itemOID": "IT.EX.EXDSTXT", "name": "EXDSTXT", "label": "Exposure Dose Description", "dataType": "string", "length": 2, "displayFormat": "."}, {"itemOID": "IT.EX.EXDOSU", "name": "EXDOSU", "label": "Exposure Dose Unit", "dataType": "string", "length": 2, "displayFormat": "."}, {"itemOID": "IT.EX.EXDOSFRM", "name": "EXDOSFRM", "label": "Exposure Dose Form", "dataType": "string", "length": 5, "displayFormat": "."}, {"itemOID": "IT.EX.EXDOSFRQ", "name": "EXDOSFRQ", "label": "Exposure Dosing Frequency per Interval", "dataType": "string", "length": 2, "displayFormat": "."}, {"itemOID": "IT.EX.EXROUTE", "name": "EXROUTE", "label": "Exposure Route of Administration", "dataType": "string", "length": 11, "displayFormat": "."}, {"itemOID": "IT.EX.VISIT", "name": "VISIT", "label": "Visit Name", "dataType": "string", "length": 19, "displayFormat": "."}, {"itemOID": "IT.EX.EXSTDAT", "name": "EXSTDAT", "label": "Exposure Start Date", "dataType": "string", "length": 11, "displayFormat": "."}, {"itemOID": "IT.EX.EXENDAT", "name": "EXENDAT", "label": "Exposure End Date", "dataType": "string", "length": 11, "displayFormat": "."}]}
["CDISCPILOT01", "701", "1015", "PLACEBO", "0", "mg", "PATCH", "QD", "TRANSDERMAL", "BASELINE", "02-JAN-2014", "16-JAN-2014"]
["CDISCPILOT01", "701", "1015", "PLACEBO", "0", "mg", "PATCH", "QD", "TRANSDERMAL", "WEEK 2", "17-JAN-2014", "18-JUN-2014"]
["CDISCPILOT01", "701", "1015", "PLACEBO", "0", "mg", "PATCH", "QD", "TRANSDERMAL", "WEEK 24", "19-JUN-2014", "02-JUL-2014"]
["CDISCPILOT01", "701", "1023", "PLACEBO", "0", "mg", "PATCH", "QD", "TRANSDERMAL", "BASELINE", "05-AUG-2012", "27-AUG-2012"]
["CDISCPILOT01", "701", "1023", "PLACEBO", "0", "mg", "PATCH", "QD", "TRANSDERMAL", "WEEK 2", "28-AUG-2012", "01-SEP-2012"]
["CDISCPILOT01", "701", "1028", "XANOMELINE", "54", "mg", "PATCH", "QD", "TRANSDERMAL", "BASELINE", "19-JUL-2013", "01-AUG-2013"]
["CDISCPILOT01", "701", "1028", "XANOMELINE", "81", "mg", "PATCH", "QD", "TRANSDERMAL", "WEEK 2", "02-AUG-2013", "06-JAN-2014"]
["CDISCPILOT01", "701", "1028", "XANOMELINE", "54", "mg", "PATCH", "QD", "TRANSDERMAL", "WEEK 24", "07-JAN-2014", "14-JAN-2014"]
["CDISCPILOT01", "701", "1033", "XANOMELINE", "54", "mg", "PATCH", "QD", "TRANSDERMAL", "BASELINE", "18-MAR-2014", "31-MAR-2014"]
["CDISCPILOT01", "701", "1034", "XANOMELINE", "54", "mg", "PATCH", "QD", "TRANSDERMAL", "BASELINE", "01-JUL-2014", "15-JUL-2014"]
["CDISCPILOT01", "701", "1034", "XANOMELINE", "81", "mg", "PATCH", "QD", "TRANSDERMAL", "WEEK 2", "16-JUL-2014", "17-DEC-2014"]
["CDISCPILOT01", "701", "1034", "XANOMELINE", "54", "mg", "PATCH", "QD", "TRANSDERMAL", "WEEK 24", "18-DEC-2014", "30-DEC-2014"]
["CDISCPILOT01", "701", "1047", "PLACEBO", "0", "mg", "PATCH", "QD", "TRANSDERMAL", "BASELINE", "12-FEB-2013", "25-FEB-2013"]
["CDISCPILOT01", "701", "1047", "PLACEBO", "0", "mg", "PATCH", "QD", "TRANSDERMAL", "WEEK 2", "26-FEB-2013", "09-MAR-2013"]
["CDISCPILOT01", "701", "1097", "XANOMELINE", "54", "mg", "PATCH", "QD", "TRANSDERMAL", "BASELINE", "01-JAN-2014", "15-JAN-2014"]
["CDISCPILOT01", "701", "1097", "XANOMELINE", "54", "mg", "PATCH", "QD", "TRANSDERMAL", "WEEK 2", "16-JAN-2014", "18-JUN-2014"]
["CDISCPILOT01", "701", "1097", "XANOMELINE", "54", "mg", "PATCH", "QD", "TRANSDERMAL", "WEEK 24", "19-JUN-2014", "09-JUL-2014"]
["CDISCPILOT01", "701", "1111", "XANOMELINE", "54", "mg", "PATCH", "QD", "TRANSDERMAL", "BASELINE", "07-SEP-2012", "16-SEP-2012"]
["CDISCPILOT01", "701", "1115", "XANOMELINE", "54", "mg", "PATCH", "QD", "TRANSDERMAL", "BASELINE", "30-NOV-2012", "13-DEC-2012"]
["CDISCPILOT01", "701", "1115", "XANOMELINE", "54", "mg", "PATCH", "QD", "TRANSDERMAL", "WEEK 2", "14-DEC-2012", "23-JAN-2013"]
["CDISCPILOT01", "701", "1118", "PLACEBO", "0", "mg", "PATCH", "QD", "TRANSDERMAL", "BASELINE", "12-MAR-2014", "26-MAR-2014"]
["CDISCPILOT01", "701", "1118", "PLACEBO", "0", "mg", "PATCH", "QD", "TRANSDERMAL", "WEEK 2", "27-MAR-2014", "27-AUG-2014"]
["CDISCPILOT01", "701", "1118", "PLACEBO", "0", "mg", "PATCH", "QD", "TRANSDERMAL", "WEEK 24", "28-AUG-2014", "09-SEP-2014"]
["CDISCPILOT01", "701", "1130", "PLACEBO", "0", "mg", "PATCH", "QD", "TRANSDERMAL", "BASELINE", "15-FEB-2014", "01-MAR-2014"]
["CDISCPILOT01", "701", "1130", "PLACEBO", "0", "mg", "PATCH", "QD", "TRANSDERMAL", "WEEK 2", "02-MAR-2014", "02-AUG-2014"]
["CDISCPILOT01", "701", "1130", "PLACEBO", "0", "mg", "PATCH", "QD", "TRANSDERMAL", "WEEK 24", "03-AUG-2014", "16-AUG-2014"]
["CDISCPILOT01", "701", "1133", "XANOMELINE", "54", "mg", "PATCH", "QD", "TRANSDERMAL", "BASELINE", "28-OCT-2012", "12-NOV-2012"]
["CDISCPILOT01", "701", "1133", "XANOMELINE", "81", "mg", "PATCH", "QD", "TRANSDERMAL", "WEEK 2", "13-NOV-2012", "18-APR-2013"]
["CDISCPILOT01", "701", "1133", "XANOMELINE", "54", "mg", "PATCH", "QD", "TRANSDERMAL", "WEEK 24", "19-APR-2013", "28-APR-2013"]
["CDISCPILOT01", "701", "1146", "XANOMELINE", "54", "mg", "PATCH", "QD", "TRANSDERMAL", "BASELINE", "20-MAY-2013", "03-JUN-2013"]
["CDISCPILOT01", "701", "1146", "XANOMELINE", "81", "mg", "PATCH", "QD", "TRANSDERMAL", "WEEK 2", "04-JUN-2013", "26-JUN-2013"]
["CDISCPILOT01", "701", "1148", "XANOMELINE", "54", "mg", "PATCH", "QD", "TRANSDERMAL", "BASELINE", "23-AUG-2013", "05-SEP-2013"]
["CDISCPILOT01", "701", "1148", "XANOMELINE", "81", "mg", "PATCH", "QD", "TRANSDERMAL", "WEEK 2", "06-SEP-2013", "08-FEB-2014"]
["CDISCPILOT01", "701", "1148", "XANOMELINE", "54", "mg", "PATCH", "QD", "TRANSDERMAL", "WEEK 24", "09-FEB-2014", "20-FEB-2014"]
["CDISCPILOT01", "701", "1153", "PLACEBO", "0", "mg", "PATCH", "QD", "TRANSDERMAL", "BASELINE", "23-SEP-2013", "08-OCT-2013"]
["CDISCPILOT01", "701", "1153", "PLACEBO", "0", "mg", "PATCH", "QD", "TRANSDERMAL", "WEEK 2", "09-OCT-2013", "11-MAR-2014"]
["CDISCPILOT01", "701", "1153", "PLACEBO", "0", "mg", "PATCH", "QD", "TRANSDERMAL", "WEEK 24", "12-MAR-2014", "16-MAR-2014"]
["CDISCPILOT01", "701", "1180", "XANOMELINE", "54", "mg", "PATCH", "QD", "TRANSDERMAL", "BASELINE", "12-FEB-2013", "25-FEB-2013"]
["CDISCPILOT01", "701", "1180", "XANOMELINE", "81", "mg", "PATCH", "QD", "TRANSDERMAL", "WEEK 2", "26-FEB-2013", "18-MAR-2013"]
["CDISCPILOT01", "701", "1181", "XANOMELINE", "54", "mg", "PATCH", "QD", "TRANSDERMAL", "BASELINE", "05-DEC-2013", "09-DEC-2013"]
["CDISCPILOT01", "701", "1188", "XANOMELINE", "54", "mg", "PATCH", "QD", "TRANSDERMAL", "BASELINE", "15-FEB-2013", "02-MAR-2013"]
["CDISCPILOT01", "701", "1188", "XANOMELINE", "54", "mg", "PATCH", "QD", "TRANSDERMAL", "WEEK 2", "03-MAR-2013", "24-MAR-2013"]
["CDISCPILOT01", "701", "1192", "XANOMELINE", "54", "mg", "PATCH", "QD", "TRANSDERMAL", "BASELINE", "22-JUL-2012", "07-AUG-2012"]
["CDISCPILOT01", "701", "1192", "XANOMELINE", "54", "mg", "PATCH", "QD", "TRANSDERMAL", "WEEK 2", "08-AUG-2012", "11-JAN-2013"]
["CDISCPILOT01", "701", "1192", "XANOMELINE", "54", "mg", "PATCH", "QD", "TRANSDERMAL", "WEEK 24", "12-JAN-2013", "20-JAN-2013"]
["CDISCPILOT01", "701", "1203", "PLACEBO", "0", "mg", "PATCH", "QD", "TRANSDERMAL", "BASELINE", "02-FEB-2013", "23-FEB-2013"]
["CDISCPILOT01", "701", "1203", "PLACEBO", "0", "mg", "PATCH", "QD", "TRANSDERMAL", "WEEK 2", "24-FEB-2013", "22-JUL-2013"]
["CDISCPILOT01", "701", "1203", "PLACEBO", "0", "mg", "PATCH", "QD", "TRANSDERMAL", "WEEK 24", "23-JUL-2013", "03-AUG-2013"]
["CDISCPILOT01", "701", "1211", "XANOMELINE", "54", "mg", "PATCH", "QD", "TRANSDERMAL", "BASELINE", "15-NOV-2012", "28-NOV-2012"]
["CDISCPILOT01", "701", "1211", "XANOMELINE", "54", "mg", "PATCH", "QD", "TRANSDERMAL", "WEEK 2", "29-NOV-2012", "12-JAN-2013"]
["CDISCPILOT01", "701", "1234", "PLACEBO", "0", "mg", "PATCH", "QD", "TRANSDERMAL", "BASELINE", "30-MAR-2013", "21-APR-2013"]
["CDISCPILOT01", "701", "1234", "PLACEBO", "0", "mg", "PATCH", "QD", "TRANSDERMAL", "WEEK 2", "22-APR-2013", "10-SEP-2013"]
["CDISCPILOT01", "701", "1234", "PLACEBO", "0", "mg", "PATCH", "QD", "TRANSDERMAL", "WEEK 24", "11-SEP-2013", "22-SEP-2013"]
["CDISCPILOT01", "701", "1239", "XANOMELINE", "54", "mg", "PATCH", "QD", "TRANSDERMAL", "BASELINE", "11-JAN-2014", "25-JAN-2014"]
["CDISCPILOT01", "701", "1239", "XANOMELINE", "81", "mg", "PATCH", "QD", "TRANSDERMAL", "WEEK 2", "26-JAN-2014", "27-JUN-2014"]
["CDISCPILOT01", "701", "1239", "XANOMELINE", "54", "mg", "PATCH", "QD", "TRANSDERMAL", "WEEK 24", "28-JUN-2014", "10-JUL-2014"]
["CDISCPILOT01", "701", "1275", "XANOMELINE", "54", "mg", "PATCH", "QD", "TRANSDERMAL", "BASELINE", "07-FEB-2014", "22-FEB-2014"]
["CDISCPILOT01", "701", "1275", "XANOMELINE", "81", "mg", "PATCH", "QD", "TRANSDERMAL", "WEEK 2", "23-FEB-2014", "31-MAY-2014"]
["CDISCPILOT01", "701", "1287", "XANOMELINE", "54", "mg", "PATCH", "QD", "TRANSDERMAL", "BASELINE", "25-JAN-2014", "11-FEB-2014"]
["CDISCPILOT01", "701", "1287", "XANOMELINE", "81", "mg", "PATCH", "QD", "TRANSDERMAL", "WEEK 2", "12-FEB-2014", "12-JUL-2014"]
["CDISCPILOT01", "701", "1287", "XANOMELINE", "54", "mg", "PATCH", "QD", "TRANSDERMAL", "WEEK 24", "13-JUL-2014", "26-JUL-2014"]
["CDISCPILOT01", "701", "1294", "XANOMELINE", "54", "mg", "PATCH", "QD", "TRANSDERMAL", "BASELINE", "24-MAR-2013", "10-APR-2013"]
["CDISCPILOT01", "701", "1294", "XANOMELINE", "54", "mg", "PATCH", "QD", "TRANSDERMAL", "WEEK 2", "11-APR-2013", "14-JUN-2013"]
["CDISCPILOT01", "701", "1302", "XANOMELINE", "54", "mg", "PATCH", "QD", "TRANSDERMAL", "BASELINE", "29-AUG-2013", "15-SEP-2013"]
["CDISCPILOT01", "701", "1302", "XANOMELINE", "81", "mg", "PATCH", "QD", "TRANSDERMAL", "WEEK 2", "16-SEP-2013", "05-NOV-2013"]
["CDISCPILOT01", "701", "1317", "XANOMELINE", "54", "mg", "PATCH", "QD", "TRANSDERMAL", "BASELINE", "22-MAY-2014", "05-JUN-2014"]
["CDISCPILOT01", "701", "1317", "XANOMELINE", "54", "mg", "PATCH", "QD", "TRANSDERMAL", "WEEK 2", "06-JUN-2014", "06-NOV-2014"]
["CDISCPILOT01", "701", "1317", "XANOMELINE", "54", "mg", "PATCH", "QD", "TRANSDERMAL", "WEEK 24", "07-NOV-2014", "20-NOV-2014"]
["CDISCPILOT01", "701", "1324", "XANOMELINE", "54", "mg", "PATCH", "QD", "TRANSDERMAL", "BASELINE", "02-OCT-2012", "16-OCT-2012"]
["CDISCPILOT01", "701", "1324", "XANOMELINE", "54", "mg", "PATCH", "QD", "TRANSDERMAL", "WEEK 2", "17-OCT-2012", "19-MAR-2013"]
["CDISCPILOT01", "701", "1324", "XANOMELINE", "54", "mg", "PATCH", "QD", "TRANSDERMAL", "WEEK 24", "20-MAR-2013", "02-APR-2013"]
["CDISCPILOT01", "701", "1341", "XANOMELINE", "54", "mg", "PATCH", "QD", "TRANSDERMAL", "BASELINE", "05-JAN-2013", "18-JAN-2013"]
["CDISCPILOT01", "701", "1341", "XANOMELINE", "54", "mg", "PATCH", "QD", "TRANSDERMAL", "WEEK 2", "19-JAN-2013", "26-JAN-2013"]
["CDISCPILOT01", "701", "1345", "PLACEBO", "0", "mg", "PATCH", "QD", "TRANSDERMAL", "BASELINE", "08-OCT-2013", "24-OCT-2013"]
["CDISCPILOT01", "701", "1345", "PLACEBO", "0", "mg", "PATCH", "QD", "TRANSDERMAL", "WEEK 2", "25-OCT-2013", "18-MAR-2014"]
["CDISCPILOT01", "701", "1360", "XANOMELINE", "54", "mg", "PATCH", "QD", "TRANSDERMAL", "BASELINE", "31-JUL-2013", "05-AUG-2013"]
["CDISCPILOT01", "701", "1363", "PLACEBO", "0", "mg", "PATCH", "QD", "TRANSDERMAL", "BASELINE", "30-MAY-2013", "12-JUN-2013"]
["CDISCPILOT01", "701", "1363", "PLACEBO", "0", "mg", "PATCH", "QD", "TRANSDERMAL", "WEEK 2", "13-JUN-2013", "13-NOV-2013"]
["CDISCPILOT01", "701", "1363", "PLACEBO", "0", "mg", "PATCH", "QD", "TRANSDERMAL", "WEEK 24", "14-NOV-2013", "27-NOV-2013"]
["CDISCPILOT01", "701", "1383", "XANOMELINE", "54", "mg", "PATCH", "QD", "TRANSDERMAL", "BASELINE", "04-FEB-2013", "19-FEB-2013"]
["CDISCPILOT01", "701", "1383", "XANOMELINE", "81", "mg", "PATCH", "QD", "TRANSDERMAL", "WEEK 2", "20-FEB-2013", "30-JUL-2013"]
["CDISCPILOT01", "701", "1383", "XANOMELINE", "54", "mg", "PATCH", "QD", "TRANSDERMAL", "WEEK 24", "31-JUL-2013", "06-AUG-2013"]
["CDISCPILOT01", "701", "1387", "PLACEBO", "0", "mg", "PATCH", "QD", "TRANSDERMAL", "BASELINE", "12-MAR-2014", "25-MAR-2014"]
["CDISCPILOT01", "701", "1392", "PLACEBO", "0", "mg", "PATCH", "QD", "TRANSDERMAL", "BASELINE", "28-OCT-2012", "11-NOV-2012"]
["CDISCPILOT01", "701", "1392", "PLACEBO", "0", "mg", "PATCH", "QD", "TRANSDERMAL", "WEEK 2", "12-NOV-2012", "15-APR-2013"]
["CDISCPILOT01", "701", "1392", "PLACEBO", "0", "mg", "PATCH", "QD", "TRANSDERMAL", "WEEK 24", "16-APR-2013", "28-APR-2013"]
["CDISCPILOT01", "701", "1415", "PLACEBO", "0", "mg", "PATCH", "QD", "TRANSDERMAL", "BASELINE", "23-SEP-2013", "07-OCT-2013"]
["CDISCPILOT01", "701", "1415", "PLACEBO", "0", "mg", "PATCH", "QD", "TRANSDERMAL", "WEEK 2", "08-OCT-2013", "10-MAR-2014"]
["CDISCPILOT01", "701", "1415", "PLACEBO", "0", "mg", "PATCH", "QD", "TRANSDERMAL", "WEEK 24", "11-MAR-2014", "24-MAR-2014"]
["CDISCPILOT01", "701", "1429", "XANOMELINE", "54", "mg", "PATCH", "QD", "TRANSDERMAL", "BASELINE", "19-MAR-2013", "02-APR-2013"]
["CDISCPILOT01", "701", "1429", "XANOMELINE", "54", "mg", "PATCH", "QD", "TRANSDERMAL", "WEEK 2", "03-APR-2013", "30-APR-2013"]
["CDISCPILOT01", "701", "1440", "PLACEBO", "0", "mg", "PATCH", "QD", "TRANSDERMAL", "BASELINE", "08-AUG-2013", "23-AUG-2013"]
["CDISCPILOT01", "701", "1440", "PLACEBO", "0", "mg", "PATCH", "QD", "TRANSDERMAL", "WEEK 2", "24-AUG-2013", "22-JAN-2014"]
["CDISCPILOT01", "701", "1440", "PLACEBO", "0", "mg", "PATCH", "QD", "TRANSDERMAL", "WEEK 24", "23-JAN-2014", "05-FEB-2014"]
["CDISCPILOT01", "701", "1442", "XANOMELINE", "54", "mg", "PATCH", "QD", "TRANSDERMAL", "BASELINE", "26-OCT-2013", "09-NOV-2013"]
["CDISCPILOT01", "701", "1442", "XANOMELINE", "54", "mg", "PATCH", "QD", "TRANSDERMAL", "WEEK 2", "10-NOV-2013", "17-APR-2014"]
["CDISCPILOT01", "701", "1442", "XANOMELINE", "54", "mg", "PATCH", "QD", "TRANSDERMAL", "WEEK 24", "18-APR-2014", "26-APR-2014"]
["CDISCPILOT01", "701", "1444", "XANOMELINE", "54", "mg", "PATCH", "QD", "TRANSDERMAL", "BASELINE", "05-JAN-2013", "18-JAN-2013"]
["CDISCPILOT01", "701", "1444", "XANOMELINE", "81", "mg", "PATCH", "QD", "TRANSDERMAL", "WEEK 2", "19-JAN-2013", "12-FEB-2013"]
["CDISCPILOT01", "702", "1082", "XANOMELINE", "54", "mg", "PATCH", "QD", "TRANSDERMAL", "BASELINE", "26-JUL-2013", "08-AUG-2013"]
["CDISCPILOT01", "702", "1082", "XANOMELINE", "54", "mg", "PATCH", "QD", "TRANSDERMAL", "WEEK 2", "09-AUG-2013", "13-OCT-2013"]
["CDISCPILOT01", "703", "1042", "PLACEBO", "0", "mg", "PATCH", "QD", "TRANSDERMAL", "BASELINE", "02-MAR-2013", "14-MAR-2013"]
["CDISCPILOT01", "703", "1042", "PLACEBO", "0", "mg", "PATCH", "QD", "TRANSDERMAL", "WEEK 2", "15-MAR-2013", "09-AUG-2013"]
["CDISCPILOT01", "703", "1042", "PLACEBO", "0", "mg", "PATCH", "QD", "TRANSDERMAL", "WEEK 24", "10-AUG-2013", "31-AUG-2013"]
["CDISCPILOT01", "703", "1076", "XANOMELINE", "54", "mg", "PATCH", "QD", "TRANSDERMAL", "BASELINE", "25-OCT-2013", "06-NOV-2013"]
["CDISCPILOT01", "703", "1076", "XANOMELINE", "81", "mg", "PATCH", "QD", "TRANSDERMAL", "WEEK 2", "07-NOV-2013", "24-DEC-2013"]
["CDISCPILOT01", "703", "1086", "XANOMELINE", "54", "mg", "PATCH", "QD", "TRANSDERMAL", "BASELINE", "02-SEP-2012", "16-SEP-2012"]
["CDISCPILOT01", "703", "1086", "XANOMELINE", "54", "mg", "PATCH", "QD", "TRANSDERMAL", "WEEK 2", "17-SEP-2012", "04-DEC-2012"]
["CDISCPILOT01", "703", "1096", "PLACEBO", "0", "mg", "PATCH", "QD", "TRANSDERMAL", "BASELINE", "25-JAN-2013", "09-FEB-2013"]
["CDISCPILOT01", "703", "1096", "PLACEBO", "0", "mg", "PATCH", "QD", "TRANSDERMAL", "WEEK 2", "10-FEB-2013", "16-MAR-2013"]
["CDISCPILOT01", "703", "1100", "PLACEBO", "0", "mg", "PATCH", "QD", "TRANSDERMAL", "BASELINE", "13-MAR-2013", "29-MAR-2013"]
["CDISCPILOT01", "703", "1100", "PLACEBO", "0", "mg", "PATCH", "QD", "TRANSDERMAL", "WEEK 2", "30-MAR-2013", "28-AUG-2013"]
["CDISCPILOT01", "703", "1100", "PLACEBO", "0", "mg", "PATCH", "QD", "TRANSDERMAL", "WEEK 24", "29-AUG-2013", "14-SEP-2013"]
["CDISCPILOT01", "703", "1119", "XANOMELINE", "54", "mg", "PATCH", "QD", "TRANSDERMAL", "BASELINE", "20-FEB-2013", "10-MAR-2013"]
["CDISCPILOT01", "703", "1119", "XANOMELINE", "54", "mg", "PATCH", "QD", "TRANSDERMAL", "WEEK 2", "11-MAR-2013", "13-JUN-2013"]
["CDISCPILOT01", "703", "1175", "PLACEBO", "0", "mg", "PATCH", "QD", "TRANSDERMAL", "BASELINE", "20-DEC-2013", "26-DEC-2013"]
["CDISCPILOT01", "703", "1182", "XANOMELINE", "54", "mg", "PATCH", "QD", "TRANSDERMAL", "BASELINE", "17-OCT-2013", "31-OCT-2013"]
["CDISCPILOT01", "703", "1182", "XANOMELINE", "54", "mg", "PATCH", "QD", "TRANSDERMAL", "WEEK 2", "01-NOV-2013", "11-DEC-2013"]
["CDISCPILOT01", "703", "1197", "XANOMELINE", "54", "mg", "PATCH", "QD", "TRANSDERMAL", "BASELINE", "16-JUN-2013", "29-JUN-2013"]
["CDISCPILOT01", "703", "1210", "PLACEBO", "0", "mg", "PATCH", "QD", "TRANSDERMAL", "BASELINE", "16-MAR-2013", "30-MAR-2013"]
["CDISCPILOT01", "703", "1210", "PLACEBO", "0", "mg", "PATCH", "QD", "TRANSDERMAL", "WEEK 2", "31-MAR-2013", "24-AUG-2013"]
["CDISCPILOT01", "703", "1210", "PLACEBO", "0", "mg", "PATCH", "QD", "TRANSDERMAL", "WEEK 24", "25-AUG-2013", "06-SEP-2013"]
["CDISCPILOT01", "703", "1258", "XANOMELINE", "54", "mg", "PATCH", "QD", "TRANSDERMAL", "BASELINE", "20-JUL-2012", "01-AUG-2012"]
["CDISCPILOT01", "703", "1258", "XANOMELINE", "81", "mg", "PATCH", "QD", "TRANSDERMAL", "WEEK 2", "02-AUG-2012", "31-DEC-2012"]
["CDISCPILOT01", "703", "1258", "XANOMELINE", "54", "mg", "PATCH", "QD", "TRANSDERMAL", "WEEK 24", "01-JAN-2013", "11-JAN-2013"]
["CDISCPILOT01", "703", "1279", "XANOMELINE", "54", "mg", "PATCH", "QD", "TRANSDERMAL", "BASELINE", "13-MAY-2013", "03-JUN-2013"]
["CDISCPILOT01", "703", "1295", "XANOMELINE", "54", "mg", "PATCH", "QD", "TRANSDERMAL", "BASELINE", "21-NOV-2013", "05-DEC-2013"]
["CDISCPILOT01", "703", "1295", "XANOMELINE", "81", "mg", "PATCH", "QD", "TRANSDERMAL", "WEEK 2", "06-DEC-2013", "19-APR-2014"]
["CDISCPILOT01", "703", "1299", "PLACEBO", "0", "mg", "PATCH", "QD", "TRANSDERMAL", "BASELINE", "12-SEP-2012", "28-SEP-2012"]
["CDISCPILOT01", "703", "1299", "PLACEBO", "0", "mg", "PATCH", "QD", "TRANSDERMAL", "WEEK 2", "29-SEP-2012", "01-MAR-2013"]
["CDISCPILOT01", "703", "1299", "PLACEBO", "0", "mg", "PATCH", "QD", "TRANSDERMAL", "WEEK 24", "02-MAR-2013", "13-MAR-2013"]
["CDISCPILOT01", "703", "1335", "XANOMELINE", "54", "mg", "PATCH", "QD", "TRANSDERMAL", "BASELINE", "17-MAR-2014", "31-MAR-2014"]
["CDISCPILOT01", "703", "1335", "XANOMELINE", "81", "mg", "PATCH", "QD", "TRANSDERMAL", "WEEK 2", "01-APR-2014", "07-MAY-2014"]
["CDISCPILOT01", "703", "1379", "XANOMELINE", "54", "mg", "PATCH", "QD", "TRANSDERMAL", "BASELINE", "22-SEP-2013", "07-OCT-2013"]
["CDISCPILOT01", "703", "1379", "XANOMELINE", "54", "mg", "PATCH", "QD", "TRANSDERMAL", "WEEK 2", "08-OCT-2013", "08-MAR-2014"]
["CDISCPILOT01", "703", "1379", "XANOMELINE", "54", "mg", "PATCH", "QD", "TRANSDERMAL", "WEEK 24", "09-MAR-2014", "21-MAR-2014"]
["CDISCPILOT01", "703", "1403", "XANOMELINE", "54", "mg", "PATCH", "QD", "TRANSDERMAL", "BASELINE", "12-DEC-2012", "13-DEC-2012"]
["CDISCPILOT01", "703", "1439", "XANOMELINE", "54", "mg", "PATCH", "QD", "TRANSDERMAL", "BASELINE", "12-MAR-2014", "26-MAR-2014"]
["CDISCPILOT01", "703", "1439", "XANOMELINE", "81", "mg", "PATCH", "QD", "TRANSDERMAL", "WEEK 2", "27-MAR-2014", "28-AUG-2014"]
["CDISCPILOT01", "703", "1439", "XANOMELINE", "54", "mg", "PATCH", "QD", "TRANSDERMAL", "WEEK 24", "29-AUG-2014", "11-SEP-2014"]
["CDISCPILOT01", "704", "1008", "XANOMELINE", "54", "mg", "PATCH", "QD", "TRANSDERMAL", "BASELINE", "13-JAN-2013", "28-JAN-2013"]
["CDISCPILOT01", "704", "1008", "XANOMELINE", "81", "mg", "PATCH", "QD", "TRANSDERMAL", "WEEK 2", "29-JAN-2013", "21-FEB-2013"]
["CDISCPILOT01", "704", "1009", "XANOMELINE", "54", "mg", "PATCH", "QD", "TRANSDERMAL", "BASELINE", "27-AUG-2013", "14-SEP-2013"]
["CDISCPILOT01", "704", "1009", "XANOMELINE", "54", "mg", "PATCH", "QD", "TRANSDERMAL", "WEEK 2", "15-SEP-2013", "25-SEP-2013"]
["CDISCPILOT01", "704", "1010", "PLACEBO", "0", "mg", "PATCH", "QD", "TRANSDERMAL", "BASELINE", "21-FEB-2014", "08-MAR-2014"]
["CDISCPILOT01", "704", "1010", "PLACEBO", "0", "mg", "PATCH", "QD", "TRANSDERMAL", "WEEK 2", "09-MAR-2014", "08-JUL-2014"]
["CDISCPILOT01", "704", "1017", "XANOMELINE", "54", "mg", "PATCH", "QD", "TRANSDERMAL", "BASELINE", "06-OCT-2013", "19-OCT-2013"]
["CDISCPILOT01", "704", "1017", "XANOMELINE", "81", "mg", "PATCH", "QD", "TRANSDERMAL", "WEEK 2", "20-OCT-2013", "18-NOV-2013"]
["CDISCPILOT01", "704", "1025", "XANOMELINE", "54", "mg", "PATCH", "QD", "TRANSDERMAL", "BASELINE", "27-SEP-2013", "11-OCT-2013"]
["CDISCPILOT01", "704", "1025", "XANOMELINE", "54", "mg", "PATCH", "QD", "TRANSDERMAL", "WEEK 2", "12-OCT-2013", "24-OCT-2013"]
["CDISCPILOT01", "704", "1065", "XANOMELINE", "54", "mg", "PATCH", "QD", "TRANSDERMAL", "BASELINE", "24-OCT-2013", "07-NOV-2013"]
["CDISCPILOT01", "704", "1065", "XANOMELINE", "81", "mg", "PATCH", "QD", "TRANSDERMAL", "WEEK 2", "08-NOV-2013", "22-DEC-2013"]
["CDISCPILOT01", "704", "1074", "XANOMELINE", "54", "mg", "PATCH", "QD", "TRANSDERMAL", "BASELINE", "22-JAN-2014", "09-FEB-2014"]
["CDISCPILOT01", "704", "1074", "XANOMELINE", "81", "mg", "PATCH", "QD", "TRANSDERMAL", "WEEK 2", "10-FEB-2014", "20-MAR-2014"]
["CDISCPILOT01", "704", "1093", "XANOMELINE", "54", "mg", "PATCH", "QD", "TRANSDERMAL", "BASELINE", "15-MAR-2013", "30-MAR-2013"]
["CDISCPILOT01", "704", "1093", "XANOMELINE", "81", "mg", "PATCH", "QD", "TRANSDERMAL", "WEEK 2", "31-MAR-2013", "17-JUN-2013"]
["CDISCPILOT01", "704", "1114", "XANOMELINE", "54", "mg", "PATCH", "QD", "TRANSDERMAL", "BASELINE", "23-JAN-2013", "03-FEB-2013"]
["CDISCPILOT01", "704", "1114", "XANOMELINE", "54", "mg", "PATCH", "QD", "TRANSDERMAL", "WEEK 2", "04-FEB-2013", "07-JUL-2013"]
["CDISCPILOT01", "704", "1120", "XANOMELINE", "54", "mg", "PATCH", "QD", "TRANSDERMAL", "BASELINE", "02-DEC-2013", "15-DEC-2013"]
["CDISCPILOT01", "704", "1120", "XANOMELINE", "54", "mg", "PATCH", "QD", "TRANSDERMAL", "WEEK 2", "16-DEC-2013", "01-FEB-2014"]
["CDISCPILOT01", "704", "1127", "PLACEBO", "0", "mg", "PATCH", "QD", "TRANSDERMAL", "BASELINE", "02-OCT-2013", "16-OCT-2013"]
["CDISCPILOT01", "704", "1127", "PLACEBO", "0", "mg", "PATCH", "QD", "TRANSDERMAL", "WEEK 2", "17-OCT-2013", "17-MAR-2014"]
["CDISCPILOT01", "704", "1127", "PLACEBO", "0", "mg", "PATCH", "QD", "TRANSDERMAL", "WEEK 24", "18-MAR-2014", "31-MAR-2014"]
["CDISCPILOT01", "704", "1135", "XANOMELINE", "54", "mg", "PATCH", "QD", "TRANSDERMAL", "BASELINE", "31-OCT-2013", "14-NOV-2013"]
["CDISCPILOT01", "704", "1135", "XANOMELINE", "54", "mg", "PATCH", "QD", "TRANSDERMAL", "WEEK 2", "15-NOV-2013", "01-MAY-2014"]
["CDISCPILOT01", "704", "1135", "XANOMELINE", "54", "mg", "PATCH", "QD", "TRANSDERMAL", "WEEK 24", "02-MAY-2014", "16-MAY-2014"]
["CDISCPILOT01", "704", "1164", "PLACEBO", "0", "mg", "PATCH", "QD", "TRANSDERMAL", "BASELINE", "19-SEP-2012", "04-OCT-2012"]
["CDISCPILOT01", "704", "1164", "PLACEBO", "0", "mg", "PATCH", "QD", "TRANSDERMAL", "WEEK 2", "05-OCT-2012", "17-MAR-2013"]
["CDISCPILOT01", "704", "1164", "PLACEBO", "0", "mg", "PATCH", "QD", "TRANSDERMAL", "WEEK 24", "18-MAR-2013", "04-APR-2013"]
["CDISCPILOT01", "704", "1218", "XANOMELINE", "54", "mg", "PATCH", "QD", "TRANSDERMAL", "BASELINE", "19-NOV-2012", "03-DEC-2012"]
["CDISCPILOT01", "704", "1218", "XANOMELINE", "54", "mg", "PATCH", "QD", "TRANSDERMAL", "WEEK 2", "04-DEC-2012", "13-MAY-2013"]
["CDISCPILOT01", "704", "1218", "XANOMELINE", "54", "mg", "PATCH", "QD", "TRANSDERMAL", "WEEK 24", "14-MAY-2013", "27-MAY-2013"]
["CDISCPILOT01", "704", "1233", "PLACEBO", "0", "mg", "PATCH", "QD", "TRANSDERMAL", "BASELINE", "21-MAR-2013", "04-APR-2013"]
["CDISCPILOT01", "704", "1233", "PLACEBO", "0", "mg", "PATCH", "QD", "TRANSDERMAL", "WEEK 2", "05-APR-2013", ""]
["CDISCPILOT01", "704", "1241", "XANOMELINE", "54", "mg", "PATCH", "QD", "TRANSDERMAL", "BASELINE", "25-AUG-2013", "05-SEP-2013"]
["CDISCPILOT01", "704", "1241", "XANOMELINE", "81", "mg", "PATCH", "QD", "TRANSDERMAL", "WEEK 2", "06-SEP-2013", "09-OCT-2013"]
["CDISCPILOT01", "704", "1260", "PLACEBO", "0", "mg", "PATCH", "QD", "TRANSDERMAL", "BASELINE", "30-AUG-2012", "13-SEP-2012"]
["CDISCPILOT01", "704", "1260", "PLACEBO", "0", "mg", "PATCH", "QD", "TRANSDERMAL", "WEEK 2", "14-SEP-2012", "04-NOV-2012"]
["CDISCPILOT01", "704", "1266", "XANOMELINE", "54", "mg", "PATCH", "QD", "TRANSDERMAL", "BASELINE", "13-OCT-2013", "27-OCT-2013"]
["CDISCPILOT01", "704", "1266", "XANOMELINE", "81", "mg", "PATCH", "QD", "TRANSDERMAL", "WEEK 2", "28-OCT-2013", "06-DEC-2013"]
["CDISCPILOT01", "704", "1323", "XANOMELINE", "54", "mg", "PATCH", "QD", "TRANSDERMAL", "BASELINE", "08-JUL-2013", "23-JUL-2013"]
["CDISCPILOT01", "704", "1323", "XANOMELINE", "54", "mg", "PATCH", "QD", "TRANSDERMAL", "WEEK 2", "24-JUL-2013", "05-AUG-2013"]
["CDISCPILOT01", "704", "1325", "XANOMELINE", "54", "mg", "PATCH", "QD", "TRANSDERMAL", "BASELINE", "23-APR-2014", "07-MAY-2014"]
["CDISCPILOT01", "704", "1325", "XANOMELINE", "54", "mg", "PATCH", "QD", "TRANSDERMAL", "WEEK 2", "08-MAY-2014", "04-JUL-2014"]
["CDISCPILOT01", "704", "1332", "XANOMELINE", "54", "mg", "PATCH", "QD", "TRANSDERMAL", "BASELINE", "09-DEC-2013", "23-DEC-2013"]
["CDISCPILOT01", "704", "1332", "XANOMELINE", "81", "mg", "PATCH", "QD", "TRANSDERMAL", "WEEK 2", "24-DEC-2013", "14-FEB-2014"]
["CDISCPILOT01", "704", "1351", "PLACEBO", "0", "mg", "PATCH", "QD", "TRANSDERMAL", "BASELINE", "12-OCT-2013", "26-OCT-2013"]
["CDISCPILOT01", "704", "1351", "PLACEBO", "0", "mg", "PATCH", "QD", "TRANSDERMAL", "WEEK 2", "27-OCT-2013", "04-APR-2014"]
["CDISCPILOT01", "704", "1351", "PLACEBO", "0", "mg", "PATCH", "QD", "TRANSDERMAL", "WEEK 24", "05-APR-2014", "18-APR-2014"]
["CDISCPILOT01", "704", "1388", "PLACEBO", "0", "mg", "PATCH", "QD", "TRANSDERMAL", "BASELINE", "07-DEC-2012", "21-DEC-2012"]
["CDISCPILOT01", "704", "1388", "PLACEBO", "0", "mg", "PATCH", "QD", "TRANSDERMAL", "WEEK 2", "22-DEC-2012", "23-MAY-2013"]
["CDISCPILOT01", "704", "1388", "PLACEBO", "0", "mg", "PATCH", "QD", "TRANSDERMAL", "WEEK 24", "24-MAY-2013", "11-JUN-2013"]
["CDISCPILOT01", "704", "1435", "PLACEBO", "0", "mg", "PATCH", "QD", "TRANSDERMAL", "BASELINE", "17-NOV-2012", "01-DEC-2012"]
["CDISCPILOT01", "704", "1435", "PLACEBO", "0", "mg", "PATCH", "QD", "TRANSDERMAL", "WEEK 2", "02-DEC-2012", "09-JAN-2013"]
["CDISCPILOT01", "704", "1445", "PLACEBO", "0", "mg", "PATCH", "QD", "TRANSDERMAL", "BASELINE", "11-MAY-2014", "25-MAY-2014"]
["CDISCPILOT01", "704", "1445", "PLACEBO", "0", "mg", "PATCH", "QD", "TRANSDERMAL", "WEEK 2", "26-MAY-2014", "01-NOV-2014"]
["CDISCPILOT01", "705", "1018", "PLACEBO", "0", "mg", "PATCH", "QD", "TRANSDERMAL", "BASELINE", "05-JUL-2013", ""]
["CDISCPILOT01", "705", "1031", "XANOMELINE", "54", "mg", "PATCH", "QD", "TRANSDERMAL", "BASELINE", "27-NOV-2013", "18-DEC-2013"]
["CDISCPILOT01", "705", "1031", "XANOMELINE", "54", "mg", "PATCH", "QD", "TRANSDERMAL", "WEEK 2", "19-DEC-2013", ""]
["CDISCPILOT01", "705", "1059", "PLACEBO", "0", "mg", "PATCH", "QD", "TRANSDERMAL", "BASELINE", "05-AUG-2013", "19-AUG-2013"]
["CDISCPILOT01", "705", "1059", "PLACEBO", "0", "mg", "PATCH", "QD", "TRANSDERMAL", "WEEK 2", "20-AUG-2013", "05-DEC-2013"]
["CDISCPILOT01", "705", "1186", "PLACEBO", "0", "mg", "PATCH", "QD", "TRANSDERMAL", "BASELINE", "08-JAN-2014", "23-JAN-2014"]
["CDISCPILOT01", "705", "1186", "PLACEBO", "0", "mg", "PATCH", "QD", "TRANSDERMAL", "WEEK 2", "24-JAN-2014", "26-JAN-2014"]
["CDISCPILOT01", "705", "1199", "XANOMELINE", "54", "mg", "PATCH", "QD", "TRANSDERMAL", "BASELINE", "16-SEP-2013", "28-SEP-2013"]
["CDISCPILOT01", "705", "1280", "XANOMELINE", "54", "mg", "PATCH", "QD", "TRANSDERMAL", "BASELINE", "17-JAN-2014", "31-JAN-2014"]
["CDISCPILOT01", "705", "1280", "XANOMELINE", "81", "mg", "PATCH", "QD", "TRANSDERMAL", "WEEK 2", "01-FEB-2014", "11-JUL-2014"]
["CDISCPILOT01", "705", "1280", "XANOMELINE", "54", "mg", "PATCH", "QD", "TRANSDERMAL", "WEEK 24", "12-JUL-2014", "25-JUL-2014"]
["CDISCPILOT01", "705", "1281", "XANOMELINE", "54", "mg", "PATCH", "QD", "TRANSDERMAL", "BASELINE", "28-NOV-2013", "15-DEC-2013"]
["CDISCPILOT01", "705", "1281", "XANOMELINE", "81", "mg", "PATCH", "QD", "TRANSDERMAL", "WEEK 2", "16-DEC-2013", "27-FEB-2014"]
["CDISCPILOT01", "705", "1282", "PLACEBO", "0", "mg", "PATCH", "QD", "TRANSDERMAL", "BASELINE", "26-DEC-2012", "09-JAN-2013"]
["CDISCPILOT01", "705", "1282", "PLACEBO", "0", "mg", "PATCH", "QD", "TRANSDERMAL", "WEEK 2", "10-JAN-2013", "11-JUN-2013"]
["CDISCPILOT01", "705", "1282", "PLACEBO", "0", "mg", "PATCH", "QD", "TRANSDERMAL", "WEEK 24", "12-JUN-2013", "24-JUN-2013"]
["CDISCPILOT01", "705", "1292", "XANOMELINE", "54", "mg", "PATCH", "QD", "TRANSDERMAL", "BASELINE", "14-OCT-2013", "29-OCT-2013"]
["CDISCPILOT01", "705", "1292", "XANOMELINE", "54", "mg", "PATCH", "QD", "TRANSDERMAL", "WEEK 2", "30-OCT-2013", "28-APR-2014"]
["CDISCPILOT01", "705", "1292", "XANOMELINE", "54", "mg", "PATCH", "QD", "TRANSDERMAL", "WEEK 24", "29-APR-2014", "13-MAY-2014"]
["CDISCPILOT01", "705", "1303", "XANOMELINE", "54", "mg", "PATCH", "QD", "TRANSDERMAL", "BASELINE", "16-DEC-2013", "30-DEC-2013"]
["CDISCPILOT01", "705", "1303", "XANOMELINE", "81", "mg", "PATCH", "QD", "TRANSDERMAL", "WEEK 2", "31-DEC-2013", ""]
["CDISCPILOT01", "705", "1310", "XANOMELINE", "54", "mg", "PATCH", "QD", "TRANSDERMAL", "BASELINE", "02-NOV-2013", "22-NOV-2013"]
["CDISCPILOT01", "705", "1310", "XANOMELINE", "81", "mg", "PATCH", "QD", "TRANSDERMAL", "WEEK 2", "23-NOV-2013", "23-JAN-2014"]
["CDISCPILOT01", "705", "1349", "PLACEBO", "0", "mg", "PATCH", "QD", "TRANSDERMAL", "BASELINE", "10-MAR-2013", "24-MAR-2013"]
["CDISCPILOT01", "705", "1349", "PLACEBO", "0", "mg", "PATCH", "QD", "TRANSDERMAL", "WEEK 2", "25-MAR-2013", "25-AUG-2013"]
["CDISCPILOT01", "705", "1349", "PLACEBO", "0", "mg", "PATCH", "QD", "TRANSDERMAL", "WEEK 24", "26-AUG-2013", "08-SEP-2013"]
["CDISCPILOT01", "705", "1377", "XANOMELINE", "54", "mg", "PATCH", "QD", "TRANSDERMAL", "BASELINE", "04-JAN-2014", "25-JAN-2014"]
["CDISCPILOT01", "705", "1377", "XANOMELINE", "81", "mg", "PATCH", "QD", "TRANSDERMAL", "WEEK 2", "26-JAN-2014", ""]
["CDISCPILOT01", "705", "1382", "XANOMELINE", "54", "mg", "PATCH", "QD", "TRANSDERMAL", "BASELINE", "13-MAY-2013", ""]
["CDISCPILOT01", "705", "1393", "XANOMELINE", "54", "mg", "PATCH", "QD", "TRANSDERMAL", "BASELINE", "07-SEP-2012", "27-SEP-2012"]
["CDISCPILOT01", "705", "1393", "XANOMELINE", "54", "mg", "PATCH", "QD", "TRANSDERMAL", "WEEK 2", "28-SEP-2012", "01-FEB-2013"]
["CDISCPILOT01", "705", "1431", "XANOMELINE", "54", "mg", "PATCH", "QD", "TRANSDERMAL", "BASELINE", "23-JUN-2013", "07-JUL-2013"]
["CDISCPILOT01", "705", "1431", "XANOMELINE", "54", "mg", "PATCH", "QD", "TRANSDERMAL", "WEEK 2", "08-JUL-2013", "05-DEC-2013"]
["CDISCPILOT01", "705", "1431", "XANOMELINE", "54", "mg", "PATCH", "QD", "TRANSDERMAL", "WEEK 24", "06-DEC-2013", "19-DEC-2013"]
["CDISCPILOT01", "706", "1041", "PLACEBO", "0", "mg", "PATCH", "QD", "TRANSDERMAL", "BASELINE", "31-DEC-2013", "14-JAN-2014"]
["CDISCPILOT01", "706", "1041", "PLACEBO", "0", "mg", "PATCH", "QD", "TRANSDERMAL", "WEEK 2", "15-JAN-2014", "15-JUL-2014"]
["CDISCPILOT01", "706", "1041", "PLACEBO", "0", "mg", "PATCH", "QD", "TRANSDERMAL", "WEEK 24", "16-JUL-2014", "28-JUL-2014"]
["CDISCPILOT01", "706", "1049", "XANOMELINE", "54", "mg", "PATCH", "QD", "TRANSDERMAL", "BASELINE", "14-MAY-2013", "28-MAY-2013"]
["CDISCPILOT01", "706", "1049", "XANOMELINE", "81", "mg", "PATCH", "QD", "TRANSDERMAL", "WEEK 2", "29-MAY-2013", "18-JUN-2013"]
["CDISCPILOT01", "706", "1384", "XANOMELINE", "54", "mg", "PATCH", "QD", "TRANSDERMAL", "BASELINE", "15-SEP-2012", "24-SEP-2012"]
["CDISCPILOT01", "707", "1037", "XANOMELINE", "54", "mg", "PATCH", "QD", "TRANSDERMAL", "BASELINE", "20-DEC-2013", "24-DEC-2013"]
["CDISCPILOT01", "707", "1206", "PLACEBO", "0", "mg", "PATCH", "QD", "TRANSDERMAL", "BASELINE", "28-OCT-2013", "12-NOV-2013"]
["CDISCPILOT01", "707", "1206", "PLACEBO", "0", "mg", "PATCH", "QD", "TRANSDERMAL", "WEEK 2", "13-NOV-2013", "13-APR-2014"]
["CDISCPILOT01", "707", "1206", "PLACEBO", "0", "mg", "PATCH", "QD", "TRANSDERMAL", "WEEK 24", "14-APR-2014", "26-APR-2014"]
["CDISCPILOT01", "708", "1019", "XANOMELINE", "54", "mg", "PATCH", "QD", "TRANSDERMAL", "BASELINE", "20-DEC-2013", "01-JAN-2014"]
["CDISCPILOT01", "708", "1032", "XANOMELINE", "54", "mg", "PATCH", "QD", "TRANSDERMAL", "BASELINE", "09-FEB-2013", "23-FEB-2013"]
["CDISCPILOT01", "708", "1032", "XANOMELINE", "54", "mg", "PATCH", "QD", "TRANSDERMAL", "WEEK 2", "24-FEB-2013", "01-MAR-2013"]
["CDISCPILOT01", "708", "1084", "XANOMELINE", "54", "mg", "PATCH", "QD", "TRANSDERMAL", "BASELINE", "09-MAY-2013", "23-MAY-2013"]
["CDISCPILOT01", "708", "1084", "XANOMELINE", "54", "mg", "PATCH", "QD", "TRANSDERMAL", "WEEK 2", "24-MAY-2013", "28-OCT-2013"]
["CDISCPILOT01", "708", "1084", "XANOMELINE", "54", "mg", "PATCH", "QD", "TRANSDERMAL", "WEEK 24", "29-OCT-2013", "11-NOV-2013"]
["CDISCPILOT01", "708", "1087", "PLACEBO", "0", "mg", "PATCH", "QD", "TRANSDERMAL", "BASELINE", "22-OCT-2012", "05-NOV-2012"]
["CDISCPILOT01", "708", "1087", "PLACEBO", "0", "mg", "PATCH", "QD", "TRANSDERMAL", "WEEK 2", "06-NOV-2012", "10-APR-2013"]
["CDISCPILOT01", "708", "1087", "PLACEBO", "0", "mg", "PATCH", "QD", "TRANSDERMAL", "WEEK 24", "11-APR-2013", "28-APR-2013"]
["CDISCPILOT01", "708", "1158", "PLACEBO", "0", "mg", "PATCH", "QD", "TRANSDERMAL", "BASELINE", "08-FEB-2014", "26-FEB-2014"]
["CDISCPILOT01", "708", "1158", "PLACEBO", "0", "mg", "PATCH", "QD", "TRANSDERMAL", "WEEK 2", "27-FEB-2014", "21-MAR-2014"]
["CDISCPILOT01", "708", "1171", "PLACEBO", "0", "mg", "PATCH", "QD", "TRANSDERMAL", "BASELINE", "06-DEC-2012", "18-DEC-2012"]
["CDISCPILOT01", "708", "1171", "PLACEBO", "0", "mg", "PATCH", "QD", "TRANSDERMAL", "WEEK 2", "19-DEC-2012", "20-MAY-2013"]
["CDISCPILOT01", "708", "1171", "PLACEBO", "0", "mg", "PATCH", "QD", "TRANSDERMAL", "WEEK 24", "21-MAY-2013", "04-JUN-2013"]
["CDISCPILOT01", "708", "1178", "XANOMELINE", "54", "mg", "PATCH", "QD", "TRANSDERMAL", "BASELINE", "29-DEC-2013", "18-JAN-2014"]
["CDISCPILOT01", "708", "1178", "XANOMELINE", "81", "mg", "PATCH", "QD", "TRANSDERMAL", "WEEK 2", "19-JAN-2014", "06-APR-2014"]
["CDISCPILOT01", "708", "1213", "XANOMELINE", "54", "mg", "PATCH", "QD", "TRANSDERMAL", "BASELINE", "09-FEB-2013", "22-FEB-2013"]
["CDISCPILOT01", "708", "1216", "XANOMELINE", "54", "mg", "PATCH", "QD", "TRANSDERMAL", "BASELINE", "24-OCT-2012", "08-NOV-2012"]
["CDISCPILOT01", "708", "1216", "XANOMELINE", "81", "mg", "PATCH", "QD", "TRANSDERMAL", "WEEK 2", "09-NOV-2012", "29-NOV-2012"]
["CDISCPILOT01", "708", "1236", "XANOMELINE", "54", "mg", "PATCH", "QD", "TRANSDERMAL", "BASELINE", "21-SEP-2013", "21-SEP-2013"]
["CDISCPILOT01", "708", "1253", "PLACEBO", "0", "mg", "PATCH", "QD", "TRANSDERMAL", "BASELINE", "07-MAY-2013", "21-MAY-2013"]
["CDISCPILOT01", "708", "1253", "PLACEBO", "0", "mg", "PATCH", "QD", "TRANSDERMAL", "WEEK 2", "22-MAY-2013", "27-OCT-2013"]
["CDISCPILOT01", "708", "1253", "PLACEBO", "0", "mg", "PATCH", "QD", "TRANSDERMAL", "WEEK 24", "28-OCT-2013", "05-NOV-2013"]
["CDISCPILOT01", "708", "1272", "XANOMELINE", "54", "mg", "PATCH", "QD", "TRANSDERMAL", "BASELINE", "06-FEB-2013", "21-FEB-2013"]
["CDISCPILOT01", "708", "1272", "XANOMELINE", "54", "mg", "PATCH", "QD", "TRANSDERMAL", "WEEK 2", "22-FEB-2013", "22-MAR-2013"]
["CDISCPILOT01", "708", "1286", "PLACEBO", "0", "mg", "PATCH", "QD", "TRANSDERMAL", "BASELINE", "10-SEP-2013", "23-SEP-2013"]
["CDISCPILOT01", "708", "1286", "PLACEBO", "0", "mg", "PATCH", "QD", "TRANSDERMAL", "WEEK 2", "24-SEP-2013", "23-FEB-2014"]
["CDISCPILOT01", "708", "1286", "PLACEBO", "0", "mg", "PATCH", "QD", "TRANSDERMAL", "WEEK 24", "24-FEB-2014", "08-MAR-2014"]
["CDISCPILOT01", "708", "1296", "PLACEBO", "0", "mg", "PATCH", "QD", "TRANSDERMAL", "BASELINE", "14-JUN-2013", "27-JUN-2013"]
["CDISCPILOT01", "708", "1296", "PLACEBO", "0", "mg", "PATCH", "QD", "TRANSDERMAL", "WEEK 2", "28-JUN-2013", "27-NOV-2013"]
["CDISCPILOT01", "708", "1296", "PLACEBO", "0", "mg", "PATCH", "QD", "TRANSDERMAL", "WEEK 24", "28-NOV-2013", "12-DEC-2013"]
["CDISCPILOT01", "708", "1297", "XANOMELINE", "54", "mg", "PATCH", "QD", "TRANSDERMAL", "BASELINE", "25-JAN-2013", "08-FEB-2013"]
["CDISCPILOT01", "708", "1297", "XANOMELINE", "54", "mg", "PATCH", "QD", "TRANSDERMAL", "WEEK 2", "09-FEB-2013", "03-MAY-2013"]
["CDISCPILOT01", "708", "1316", "PLACEBO", "0", "mg", "PATCH", "QD", "TRANSDERMAL", "BASELINE", "23-AUG-2013", "05-SEP-2013"]
["CDISCPILOT01", "708", "1316", "PLACEBO", "0", "mg", "PATCH", "QD", "TRANSDERMAL", "WEEK 2", "06-SEP-2013", "15-FEB-2014"]
["CDISCPILOT01", "708", "1316", "PLACEBO", "0", "mg", "PATCH", "QD", "TRANSDERMAL", "WEEK 24", "16-FEB-2014", "01-MAR-2014"]
["CDISCPILOT01", "708", "1336", "XANOMELINE", "54", "mg", "PATCH", "QD", "TRANSDERMAL", "BASELINE", "07-DEC-2012", "21-DEC-2012"]
["CDISCPILOT01", "708", "1336", "XANOMELINE", "81", "mg", "PATCH", "QD", "TRANSDERMAL", "WEEK 2", "22-DEC-2012", "22-MAY-2013"]
["CDISCPILOT01", "708", "1336", "XANOMELINE", "54", "mg", "PATCH", "QD", "TRANSDERMAL", "WEEK 24", "23-MAY-2013", "05-JUN-2013"]
["CDISCPILOT01", "708", "1342", "PLACEBO", "0", "mg", "PATCH", "QD", "TRANSDERMAL", "BASELINE", "29-DEC-2012", "12-JAN-2013"]
["CDISCPILOT01", "708", "1342", "PLACEBO", "0", "mg", "PATCH", "QD", "TRANSDERMAL", "WEEK 2", "13-JAN-2013", "15-JUN-2013"]
["CDISCPILOT01", "708", "1342", "PLACEBO", "0", "mg", "PATCH", "QD", "TRANSDERMAL", "WEEK 24", "16-JUN-2013", "28-JUN-2013"]
["CDISCPILOT01", "708", "1347", "XANOMELINE", "54", "mg", "PATCH", "QD", "TRANSDERMAL", "BASELINE", "20-APR-2013", "04-MAY-2013"]
["CDISCPILOT01", "708", "1347", "XANOMELINE", "81", "mg", "PATCH", "QD", "TRANSDERMAL", "WEEK 2", "05-MAY-2013", "18-JUN-2013"]
["CDISCPILOT01", "708", "1348", "XANOMELINE", "54", "mg", "PATCH", "QD", "TRANSDERMAL", "BASELINE", "05-AUG-2013", "19-AUG-2013"]
["CDISCPILOT01", "708", "1348", "XANOMELINE", "54", "mg", "PATCH", "QD", "TRANSDERMAL", "WEEK 2", "20-AUG-2013", "03-FEB-2014"]
["CDISCPILOT01", "708", "1348", "XANOMELINE", "54", "mg", "PATCH", "QD", "TRANSDERMAL", "WEEK 24", "04-FEB-2014", "13-FEB-2014"]
["CDISCPILOT01", "708", "1353", "XANOMELINE", "54", "mg", "PATCH", "QD", "TRANSDERMAL", "BASELINE", "04-JUL-2013", "18-JUL-2013"]
["CDISCPILOT01", "708", "1353", "XANOMELINE", "54", "mg", "PATCH", "QD", "TRANSDERMAL", "WEEK 2", "19-JUL-2013", "28-AUG-2013"]
["CDISCPILOT01", "708", "1372", "XANOMELINE", "54", "mg", "PATCH", "QD", "TRANSDERMAL", "BASELINE", "12-APR-2013", "19-APR-2013"]
["CDISCPILOT01", "708", "1378", "PLACEBO", "0", "mg", "PATCH", "QD", "TRANSDERMAL", "BASELINE", "03-SEP-2013", "21-SEP-2013"]
["CDISCPILOT01", "708", "1378", "PLACEBO", "0", "mg", "PATCH", "QD", "TRANSDERMAL", "WEEK 2", "22-SEP-2013", "28-JAN-2014"]
["CDISCPILOT01", "708", "1406", "XANOMELINE", "54", "mg", "PATCH", "QD", "TRANSDERMAL", "BASELINE", "26-DEC-2013", "09-JAN-2014"]
["CDISCPILOT01", "708", "1406", "XANOMELINE", "81", "mg", "PATCH", "QD", "TRANSDERMAL", "WEEK 2", "10-JAN-2014", "16-JUN-2014"]
["CDISCPILOT01", "708", "1406", "XANOMELINE", "54", "mg", "PATCH", "QD", "TRANSDERMAL", "WEEK 24", "17-JUN-2014", "02-JUL-2014"]
["CDISCPILOT01", "708", "1428", "XANOMELINE", "54", "mg", "PATCH", "QD", "TRANSDERMAL", "BASELINE", "09-NOV-2013", "23-NOV-2013"]
["CDISCPILOT01", "708", "1428", "XANOMELINE", "54", "mg", "PATCH", "QD", "TRANSDERMAL", "WEEK 2", "24-NOV-2013", "14-DEC-2013"]
["CDISCPILOT01", "709", "1001", "PLACEBO", "0", "mg", "PATCH", "QD", "TRANSDERMAL", "BASELINE", "08-OCT-2013", "22-OCT-2013"]
["CDISCPILOT01", "709", "1001", "PLACEBO", "0", "mg", "PATCH", "QD", "TRANSDERMAL", "WEEK 2", "23-OCT-2013", "17-MAR-2014"]
["CDISCPILOT01", "709", "1001", "PLACEBO", "0", "mg", "PATCH", "QD", "TRANSDERMAL", "WEEK 24", "18-MAR-2014", "08-APR-2014"]
["CDISCPILOT01", "709", "1007", "XANOMELINE", "54", "mg", "PATCH", "QD", "TRANSDERMAL", "BASELINE", "31-JUL-2012", "18-AUG-2012"]
["CDISCPILOT01", "709", "1007", "XANOMELINE", "54", "mg", "PATCH", "QD", "TRANSDERMAL", "WEEK 2", "19-AUG-2012", "28-AUG-2012"]
["CDISCPILOT01", "709", "1020", "XANOMELINE", "54", "mg", "PATCH", "QD", "TRANSDERMAL", "BASELINE", "01-DEC-2012", "15-DEC-2012"]
["CDISCPILOT01", "709", "1020", "XANOMELINE", "54", "mg", "PATCH", "QD", "TRANSDERMAL", "WEEK 2", "16-DEC-2012", "18-MAY-2013"]
["CDISCPILOT01", "709", "1020", "XANOMELINE", "54", "mg", "PATCH", "QD", "TRANSDERMAL", "WEEK 24", "19-MAY-2013", "01-JUN-2013"]
["CDISCPILOT01", "709", "1029", "XANOMELINE", "54", "mg", "PATCH", "QD", "TRANSDERMAL", "BASELINE", "25-DEC-2012", "09-JAN-2013"]
["CDISCPILOT01", "709", "1029", "XANOMELINE", "81", "mg", "PATCH", "QD", "TRANSDERMAL", "WEEK 2", "10-JAN-2013", "12-JUN-2013"]
["CDISCPILOT01", "709", "1029", "XANOMELINE", "54", "mg", "PATCH", "QD", "TRANSDERMAL", "WEEK 24", "13-JUN-2013", "26-JUN-2013"]
["CDISCPILOT01", "709", "1081", "XANOMELINE", "54", "mg", "PATCH", "QD", "TRANSDERMAL", "BASELINE", "18-JAN-2014", "01-FEB-2014"]
["CDISCPILOT01", "709", "1081", "XANOMELINE", "54", "mg", "PATCH", "QD", "TRANSDERMAL", "WEEK 2", "02-FEB-2014", "27-APR-2014"]
["CDISCPILOT01", "709", "1088", "PLACEBO", "0", "mg", "PATCH", "QD", "TRANSDERMAL", "BASELINE", "12-APR-2014", "26-APR-2014"]
["CDISCPILOT01", "709", "1088", "PLACEBO", "0", "mg", "PATCH", "QD", "TRANSDERMAL", "WEEK 2", "27-APR-2014", "27-SEP-2014"]
["CDISCPILOT01", "709", "1088", "PLACEBO", "0", "mg", "PATCH", "QD", "TRANSDERMAL", "WEEK 24", "28-SEP-2014", "09-OCT-2014"]
["CDISCPILOT01", "709", "1099", "XANOMELINE", "54", "mg", "PATCH", "QD", "TRANSDERMAL", "BASELINE", "25-OCT-2013", "12-NOV-2013"]
["CDISCPILOT01", "709", "1099", "XANOMELINE", "81", "mg", "PATCH", "QD", "TRANSDERMAL", "WEEK 2", "13-NOV-2013", "11-APR-2014"]
["CDISCPILOT01", "709", "1099", "XANOMELINE", "54", "mg", "PATCH", "QD", "TRANSDERMAL", "WEEK 24", "12-APR-2014", "25-APR-2014"]
["CDISCPILOT01", "709", "1102", "XANOMELINE", "54", "mg", "PATCH", "QD", "TRANSDERMAL", "BASELINE", "15-JAN-2013", "31-JAN-2013"]
["CDISCPILOT01", "709", "1102", "XANOMELINE", "54", "mg", "PATCH", "QD", "TRANSDERMAL", "WEEK 2", "01-FEB-2013", "27-MAR-2013"]
["CDISCPILOT01", "709", "1168", "XANOMELINE", "54", "mg", "PATCH", "QD", "TRANSDERMAL", "BASELINE", "02-AUG-2013", "17-AUG-2013"]
["CDISCPILOT01", "709", "1168", "XANOMELINE", "81", "mg", "PATCH", "QD", "TRANSDERMAL", "WEEK 2", "18-AUG-2013", "26-SEP-2013"]
["CDISCPILOT01", "709", "1217", "XANOMELINE", "54", "mg", "PATCH", "QD", "TRANSDERMAL", "BASELINE", "04-MAR-2013", "19-MAR-2013"]
["CDISCPILOT01", "709", "1217", "XANOMELINE", "54", "mg", "PATCH", "QD", "TRANSDERMAL", "WEEK 2", "20-MAR-2013", "11-JUN-2013"]
["CDISCPILOT01", "709", "1238", "XANOMELINE", "54", "mg", "PATCH", "QD", "TRANSDERMAL", "BASELINE", "15-MAY-2013", "29-MAY-2013"]
["CDISCPILOT01", "709", "1238", "XANOMELINE", "81", "mg", "PATCH", "QD", "TRANSDERMAL", "WEEK 2", "30-MAY-2013", "06-AUG-2013"]
["CDISCPILOT01", "709", "1259", "PLACEBO", "0", "mg", "PATCH", "QD", "TRANSDERMAL", "BASELINE", "26-JAN-2013", "10-FEB-2013"]
["CDISCPILOT01", "709", "1259", "PLACEBO", "0", "mg", "PATCH", "QD", "TRANSDERMAL", "WEEK 2", "11-FEB-2013", "13-JUN-2013"]
["CDISCPILOT01", "709", "1285", "XANOMELINE", "54", "mg", "PATCH", "QD", "TRANSDERMAL", "BASELINE", "24-MAR-2013", "08-APR-2013"]
["CDISCPILOT01", "709", "1285", "XANOMELINE", "54", "mg", "PATCH", "QD", "TRANSDERMAL", "WEEK 2", "09-APR-2013", "23-MAY-2013"]
["CDISCPILOT01", "709", "1301", "PLACEBO", "0", "mg", "PATCH", "QD", "TRANSDERMAL", "BASELINE", "19-JUL-2013", "02-AUG-2013"]
["CDISCPILOT01", "709", "1301", "PLACEBO", "0", "mg", "PATCH", "QD", "TRANSDERMAL", "WEEK 2", "03-AUG-2013", "04-JAN-2014"]
["CDISCPILOT01", "709", "1301", "PLACEBO", "0", "mg", "PATCH", "QD", "TRANSDERMAL", "WEEK 24", "05-JAN-2014", "17-JAN-2014"]
["CDISCPILOT01", "709", "1306", "PLACEBO", "0", "mg", "PATCH", "QD", "TRANSDERMAL", "BASELINE", "03-FEB-2014", "19-FEB-2014"]
["CDISCPILOT01", "709", "1306", "PLACEBO", "0", "mg", "PATCH", "QD", "TRANSDERMAL", "WEEK 2", "20-FEB-2014", "16-JUN-2014"]
["CDISCPILOT01", "709", "1309", "XANOMELINE", "54", "mg", "PATCH", "QD", "TRANSDERMAL", "BASELINE", "19-JUN-2013", "01-JUL-2013"]
["CDISCPILOT01", "709", "1309", "XANOMELINE", "81", "mg", "PATCH", "QD", "TRANSDERMAL", "WEEK 2", "02-JUL-2013", "05-DEC-2013"]
["CDISCPILOT01", "709", "1309", "XANOMELINE", "54", "mg", "PATCH", "QD", "TRANSDERMAL", "WEEK 24", "06-DEC-2013", "19-DEC-2013"]
["CDISCPILOT01", "709", "1312", "PLACEBO", "0", "mg", "PATCH", "QD", "TRANSDERMAL", "BASELINE", "20-APR-2014", "10-MAY-2014"]
["CDISCPILOT01", "709", "1312", "PLACEBO", "0", "mg", "PATCH", "QD", "TRANSDERMAL", "WEEK 2", "11-MAY-2014", "05-OCT-2014"]
["CDISCPILOT01", "709", "1312", "PLACEBO", "0", "mg", "PATCH", "QD", "TRANSDERMAL", "WEEK 24", "06-OCT-2014", "19-OCT-2014"]
["CDISCPILOT01", "709", "1326", "XANOMELINE", "54", "mg", "PATCH", "QD", "TRANSDERMAL", "BASELINE", "05-APR-2013", "18-APR-2013"]
["CDISCPILOT01", "709", "1326", "XANOMELINE", "54", "mg", "PATCH", "QD", "TRANSDERMAL", "WEEK 2", "19-APR-2013", "20-SEP-2013"]
["CDISCPILOT01", "709", "1326", "XANOMELINE", "54", "mg", "PATCH", "QD", "TRANSDERMAL", "WEEK 24", "21-SEP-2013", "02-OCT-2013"]
["CDISCPILOT01", "709", "1329", "XANOMELINE", "54", "mg", "PATCH", "QD", "TRANSDERMAL", "BASELINE", "15-AUG-2013", "25-AUG-2013"]
["CDISCPILOT01", "709", "1339", "PLACEBO", "0", "mg", "PATCH", "QD", "TRANSDERMAL", "BASELINE", "23-DEC-2012", "05-JAN-2013"]
["CDISCPILOT01", "709", "1339", "PLACEBO", "0", "mg", "PATCH", "QD", "TRANSDERMAL", "WEEK 2", "06-JAN-2013", "08-JUN-2013"]
["CDISCPILOT01", "709", "1339", "PLACEBO", "0", "mg", "PATCH", "QD", "TRANSDERMAL", "WEEK 24", "09-JUN-2013", "24-JUN-2013"]
["CDISCPILOT01", "709", "1424", "XANOMELINE", "54", "mg", "PATCH", "QD", "TRANSDERMAL", "BASELINE", "03-MAR-2013", "07-MAR-2013"]
["CDISCPILOT01", "710", "1002", "XANOMELINE", "54", "mg", "PATCH", "QD", "TRANSDERMAL", "BASELINE", "14-JAN-2014", "18-JAN-2014"]
["CDISCPILOT01", "710", "1006", "XANOMELINE", "54", "mg", "PATCH", "QD", "TRANSDERMAL", "BASELINE", "10-FEB-2013", "22-FEB-2013"]
["CDISCPILOT01", "710", "1006", "XANOMELINE", "81", "mg", "PATCH", "QD", "TRANSDERMAL", "WEEK 2", "23-FEB-2013", "27-JUL-2013"]
["CDISCPILOT01", "710", "1006", "XANOMELINE", "54", "mg", "PATCH", "QD", "TRANSDERMAL", "WEEK 24", "28-JUL-2013", "09-AUG-2013"]
["CDISCPILOT01", "710", "1021", "XANOMELINE", "54", "mg", "PATCH", "QD", "TRANSDERMAL", "BASELINE", "27-SEP-2013", "11-OCT-2013"]
["CDISCPILOT01", "710", "1021", "XANOMELINE", "81", "mg", "PATCH", "QD", "TRANSDERMAL", "WEEK 2", "12-OCT-2013", "29-OCT-2013"]
["CDISCPILOT01", "710", "1027", "PLACEBO", "0", "mg", "PATCH", "QD", "TRANSDERMAL", "BASELINE", "28-FEB-2014", "14-MAR-2014"]
["CDISCPILOT01", "710", "1027", "PLACEBO", "0", "mg", "PATCH", "QD", "TRANSDERMAL", "WEEK 2", "15-MAR-2014", "19-AUG-2014"]
["CDISCPILOT01", "710", "1027", "PLACEBO", "0", "mg", "PATCH", "QD", "TRANSDERMAL", "WEEK 24", "20-AUG-2014", "29-AUG-2014"]
["CDISCPILOT01", "710", "1045", "XANOMELINE", "54", "mg", "PATCH", "QD", "TRANSDERMAL", "BASELINE", "03-JUN-2013", "17-JUN-2013"]
["CDISCPILOT01", "710", "1045", "XANOMELINE", "54", "mg", "PATCH", "QD", "TRANSDERMAL", "WEEK 2", "18-JUN-2013", "13-AUG-2013"]
["CDISCPILOT01", "710", "1053", "XANOMELINE", "54", "mg", "PATCH", "QD", "TRANSDERMAL", "BASELINE", "26-DEC-2012", "09-JAN-2013"]
["CDISCPILOT01", "710", "1053", "XANOMELINE", "54", "mg", "PATCH", "QD", "TRANSDERMAL", "WEEK 2", "10-JAN-2013", "10-FEB-2013"]
["CDISCPILOT01", "710", "1060", "PLACEBO", "0", "mg", "PATCH", "QD", "TRANSDERMAL", "BASELINE", "01-JAN-2013", "15-JAN-2013"]
["CDISCPILOT01", "710", "1060", "PLACEBO", "0", "mg", "PATCH", "QD", "TRANSDERMAL", "WEEK 2", "16-JAN-2013", "21-JUN-2013"]
["CDISCPILOT01", "710", "1060", "PLACEBO", "0", "mg", "PATCH", "QD", "TRANSDERMAL", "WEEK 24", "22-JUN-2013", "05-JUL-2013"]
["CDISCPILOT01", "710", "1070", "XANOMELINE", "54", "mg", "PATCH", "QD", "TRANSDERMAL", "BASELINE", "08-SEP-2012", "22-SEP-2012"]
["CDISCPILOT01", "710", "1070", "XANOMELINE", "81", "mg", "PATCH", "QD", "TRANSDERMAL", "WEEK 2", "23-SEP-2012", "22-JAN-2013"]
["CDISCPILOT01", "710", "1077", "PLACEBO", "0", "mg", "PATCH", "QD", "TRANSDERMAL", "BASELINE", "17-NOV-2013", "01-DEC-2013"]
["CDISCPILOT01", "710", "1077", "PLACEBO", "0", "mg", "PATCH", "QD", "TRANSDERMAL", "WEEK 2", "02-DEC-2013", "03-MAY-2014"]
["CDISCPILOT01", "710", "1077", "PLACEBO", "0", "mg", "PATCH", "QD", "TRANSDERMAL", "WEEK 24", "04-MAY-2014", "18-MAY-2014"]
["CDISCPILOT01", "710", "1078", "PLACEBO", "0", "mg", "PATCH", "QD", "TRANSDERMAL", "BASELINE", "17-SEP-2013", "06-OCT-2013"]
["CDISCPILOT01", "710", "1078", "PLACEBO", "0", "mg", "PATCH", "QD", "TRANSDERMAL", "WEEK 2", "07-OCT-2013", "08-MAR-2014"]
["CDISCPILOT01", "710", "1078", "PLACEBO", "0", "mg", "PATCH", "QD", "TRANSDERMAL", "WEEK 24", "09-MAR-2014", "23-MAR-2014"]
["CDISCPILOT01", "710", "1083", "PLACEBO", "0", "mg", "PATCH", "QD", "TRANSDERMAL", "BASELINE", "22-JUL-2013", "01-AUG-2013"]
["CDISCPILOT01", "710", "1137", "XANOMELINE", "54", "mg", "PATCH", "QD", "TRANSDERMAL", "BASELINE", "11-OCT-2013", "25-OCT-2013"]
["CDISCPILOT01", "710", "1137", "XANOMELINE", "81", "mg", "PATCH", "QD", "TRANSDERMAL", "WEEK 2", "26-OCT-2013", "13-NOV-2013"]
["CDISCPILOT01", "710", "1142", "XANOMELINE", "54", "mg", "PATCH", "QD", "TRANSDERMAL", "BASELINE", "02-OCT-2012", "16-OCT-2012"]
["CDISCPILOT01", "710", "1142", "XANOMELINE", "81", "mg", "PATCH", "QD", "TRANSDERMAL", "WEEK 2", "17-OCT-2012", "20-OCT-2012"]
["CDISCPILOT01", "710", "1154", "XANOMELINE", "54", "mg", "PATCH", "QD", "TRANSDERMAL", "BASELINE", "29-MAR-2014", "12-APR-2014"]
["CDISCPILOT01", "710", "1154", "XANOMELINE", "54", "mg", "PATCH", "QD", "TRANSDERMAL", "WEEK 2", "13-APR-2014", "27-APR-2014"]
["CDISCPILOT01", "710", "1166", "XANOMELINE", "54", "mg", "PATCH", "QD", "TRANSDERMAL", "BASELINE", "30-NOV-2012", "14-DEC-2012"]
["CDISCPILOT01", "710", "1166", "XANOMELINE", "54", "mg", "PATCH", "QD", "TRANSDERMAL", "WEEK 2", "15-DEC-2012", "19-MAR-2013"]
["CDISCPILOT01", "710", "1183", "PLACEBO", "0", "mg", "PATCH", "QD", "TRANSDERMAL", "BASELINE", "16-NOV-2013", "30-NOV-2013"]
["CDISCPILOT01", "710", "1183", "PLACEBO", "0", "mg", "PATCH", "QD", "TRANSDERMAL", "WEEK 2", "01-DEC-2013", "03-MAY-2014"]
["CDISCPILOT01", "710", "1183", "PLACEBO", "0", "mg", "PATCH", "QD", "TRANSDERMAL", "WEEK 24", "04-MAY-2014", "17-MAY-2014"]
["CDISCPILOT01", "710", "1187", "XANOMELINE", "54", "mg", "PATCH", "QD", "TRANSDERMAL", "BASELINE", "10-NOV-2012", "24-NOV-2012"]
["CDISCPILOT01", "710", "1187", "XANOMELINE", "81", "mg", "PATCH", "QD", "TRANSDERMAL", "WEEK 2", "25-NOV-2012", "28-APR-2013"]
["CDISCPILOT01", "710", "1187", "XANOMELINE", "54", "mg", "PATCH", "QD", "TRANSDERMAL", "WEEK 24", "29-APR-2013", "12-MAY-2013"]
["CDISCPILOT01", "710", "1235", "XANOMELINE", "54", "mg", "PATCH", "QD", "TRANSDERMAL", "BASELINE", "26-SEP-2012", "10-OCT-2012"]
["CDISCPILOT01", "710", "1235", "XANOMELINE", "54", "mg", "PATCH", "QD", "TRANSDERMAL", "WEEK 2", "11-OCT-2012", "13-MAR-2013"]
["CDISCPILOT01", "710", "1235", "XANOMELINE", "54", "mg", "PATCH", "QD", "TRANSDERMAL", "WEEK 24", "14-MAR-2013", "27-MAR-2013"]
["CDISCPILOT01", "710", "1249", "XANOMELINE", "54", "mg", "PATCH", "QD", "TRANSDERMAL", "BASELINE", "28-DEC-2013", "11-JAN-2014"]
["CDISCPILOT01", "710", "1249", "XANOMELINE", "81", "mg", "PATCH", "QD", "TRANSDERMAL", "WEEK 2", "12-JAN-2014", "14-JUN-2014"]
["CDISCPILOT01", "710", "1249", "XANOMELINE", "54", "mg", "PATCH", "QD", "TRANSDERMAL", "WEEK 24", "15-JUN-2014", "28-JUN-2014"]
["CDISCPILOT01", "710", "1264", "PLACEBO", "0", "mg", "PATCH", "QD", "TRANSDERMAL", "BASELINE", "13-JUN-2013", "27-JUN-2013"]
["CDISCPILOT01", "710", "1264", "PLACEBO", "0", "mg", "PATCH", "QD", "TRANSDERMAL", "WEEK 2", "28-JUN-2013", "11-OCT-2013"]
["CDISCPILOT01", "710", "1270", "XANOMELINE", "54", "mg", "PATCH", "QD", "TRANSDERMAL", "BASELINE", "12-FEB-2014", "01-MAR-2014"]
["CDISCPILOT01", "710", "1271", "PLACEBO", "0", "mg", "PATCH", "QD", "TRANSDERMAL", "BASELINE", "27-SEP-2012", "12-OCT-2012"]
["CDISCPILOT01", "710", "1271", "PLACEBO", "0", "mg", "PATCH", "QD", "TRANSDERMAL", "WEEK 2", "13-OCT-2012", "21-NOV-2012"]
["CDISCPILOT01", "710", "1278", "XANOMELINE", "54", "mg", "PATCH", "QD", "TRANSDERMAL", "BASELINE", "24-DEC-2012", "07-JAN-2013"]
["CDISCPILOT01", "710", "1278", "XANOMELINE", "81", "mg", "PATCH", "QD", "TRANSDERMAL", "WEEK 2", "08-JAN-2013", "26-FEB-2013"]
["CDISCPILOT01", "710", "1300", "XANOMELINE", "54", "mg", "PATCH", "QD", "TRANSDERMAL", "BASELINE", "15-DEC-2012", "30-DEC-2012"]
["CDISCPILOT01", "710", "1300", "XANOMELINE", "54", "mg", "PATCH", "QD", "TRANSDERMAL", "WEEK 2", "31-DEC-2012", "15-FEB-2013"]
["CDISCPILOT01", "710", "1314", "PLACEBO", "0", "mg", "PATCH", "QD", "TRANSDERMAL", "BASELINE", "24-APR-2013", "09-MAY-2013"]
["CDISCPILOT01", "710", "1314", "PLACEBO", "0", "mg", "PATCH", "QD", "TRANSDERMAL", "WEEK 2", "10-MAY-2013", "23-MAY-2013"]
["CDISCPILOT01", "710", "1315", "PLACEBO", "0", "mg", "PATCH", "QD", "TRANSDERMAL", "BASELINE", "27-FEB-2013", "13-MAR-2013"]
["CDISCPILOT01", "710", "1315", "PLACEBO", "0", "mg", "PATCH", "QD", "TRANSDERMAL", "WEEK 2", "14-MAR-2013", "06-JUL-2013"]
["CDISCPILOT01", "710", "1354", "XANOMELINE", "54", "mg", "PATCH", "QD", "TRANSDERMAL", "BASELINE", "11-NOV-2012", "25-NOV-2012"]
["CDISCPILOT01", "710", "1354", "XANOMELINE", "81", "mg", "PATCH", "QD", "TRANSDERMAL", "WEEK 2", "26-NOV-2012", "21-APR-2013"]
["CDISCPILOT01", "710", "1354", "XANOMELINE", "54", "mg", "PATCH", "QD", "TRANSDERMAL", "WEEK 24", "22-APR-2013", "01-MAY-2013"]
["CDISCPILOT01", "710", "1358", "XANOMELINE", "54", "mg", "PATCH", "QD", "TRANSDERMAL", "BASELINE", "17-SEP-2012", "01-OCT-2012"]
["CDISCPILOT01", "710", "1358", "XANOMELINE", "54", "mg", "PATCH", "QD", "TRANSDERMAL", "WEEK 2", "02-OCT-2012", "09-FEB-2013"]
["CDISCPILOT01", "710", "1368", "PLACEBO", "0", "mg", "PATCH", "QD", "TRANSDERMAL", "BASELINE", "23-OCT-2013", "06-NOV-2013"]
["CDISCPILOT01", "710", "1368", "PLACEBO", "0", "mg", "PATCH", "QD", "TRANSDERMAL", "WEEK 2", "07-NOV-2013", "09-APR-2014"]
["CDISCPILOT01", "710", "1368", "PLACEBO", "0", "mg", "PATCH", "QD", "TRANSDERMAL", "WEEK 24", "10-APR-2014", "24-APR-2014"]
["CDISCPILOT01", "710", "1385", "XANOMELINE", "54", "mg", "PATCH", "QD", "TRANSDERMAL", "BASELINE", "29-OCT-2012", "12-NOV-2012"]
["CDISCPILOT01", "710", "1385", "XANOMELINE", "54", "mg", "PATCH", "QD", "TRANSDERMAL", "WEEK 2", "13-NOV-2012", "18-FEB-2013"]
["CDISCPILOT01", "710", "1408", "XANOMELINE", "54", "mg", "PATCH", "QD", "TRANSDERMAL", "BASELINE", "05-JAN-2013", "24-JAN-2013"]
["CDISCPILOT01", "710", "1408", "XANOMELINE", "81", "mg", "PATCH", "QD", "TRANSDERMAL", "WEEK 2", "25-JAN-2013", "28-JUN-2013"]
["CDISCPILOT01", "710", "1408", "XANOMELINE", "54", "mg", "PATCH", "QD", "TRANSDERMAL", "WEEK 24", "29-JUN-2013", "12-JUL-2013"]
["CDISCPILOT01", "711", "1012", "XANOMELINE", "54", "mg", "PATCH", "QD", "TRANSDERMAL", "BASELINE", "03-APR-2013", "17-APR-2013"]
["CDISCPILOT01", "711", "1012", "XANOMELINE", "81", "mg", "PATCH", "QD", "TRANSDERMAL", "WEEK 2", "18-APR-2013", "29-APR-2013"]
["CDISCPILOT01", "711", "1036", "PLACEBO", "0", "mg", "PATCH", "QD", "TRANSDERMAL", "BASELINE", "29-JUL-2012", "12-AUG-2012"]
["CDISCPILOT01", "711", "1036", "PLACEBO", "0", "mg", "PATCH", "QD", "TRANSDERMAL", "WEEK 2", "13-AUG-2012", "13-JAN-2013"]
["CDISCPILOT01", "711", "1036", "PLACEBO", "0", "mg", "PATCH", "QD", "TRANSDERMAL", "WEEK 24", "14-JAN-2013", "10-FEB-2013"]
["CDISCPILOT01", "711", "1143", "XANOMELINE", "54", "mg", "PATCH", "QD", "TRANSDERMAL", "BASELINE", "03-APR-2013", "17-APR-2013"]
["CDISCPILOT01", "711", "1143", "XANOMELINE", "54", "mg", "PATCH", "QD", "TRANSDERMAL", "WEEK 2", "18-APR-2013", "30-MAY-2013"]
["CDISCPILOT01", "711", "1433", "XANOMELINE", "54", "mg", "PATCH", "QD", "TRANSDERMAL", "BASELINE", "27-JAN-2013", "05-FEB-2013"]
["CDISCPILOT01", "713", "1043", "XANOMELINE", "54", "mg", "PATCH", "QD", "TRANSDERMAL", "BASELINE", "15-SEP-2013", "30-SEP-2013"]
["CDISCPILOT01", "713", "1043", "XANOMELINE", "54", "mg", "PATCH", "QD", "TRANSDERMAL", "WEEK 2", "01-OCT-2013", "28-FEB-2014"]
["CDISCPILOT01", "713", "1043", "XANOMELINE", "54", "mg", "PATCH", "QD", "TRANSDERMAL", "WEEK 24", "01-MAR-2014", "24-MAR-2014"]
["CDISCPILOT01", "713", "1073", "XANOMELINE", "54", "mg", "PATCH", "QD", "TRANSDERMAL", "BASELINE", "30-MAR-2014", "14-APR-2014"]
["CDISCPILOT01", "713", "1073", "XANOMELINE", "54", "mg", "PATCH", "QD", "TRANSDERMAL", "WEEK 2", "15-APR-2014", "21-SEP-2014"]
["CDISCPILOT01", "713", "1073", "XANOMELINE", "54", "mg", "PATCH", "QD", "TRANSDERMAL", "WEEK 24", "22-SEP-2014", "05-OCT-2014"]
["CDISCPILOT01", "713", "1106", "XANOMELINE", "54", "mg", "PATCH", "QD", "TRANSDERMAL", "BASELINE", "31-OCT-2012", "15-NOV-2012"]
["CDISCPILOT01", "713", "1106", "XANOMELINE", "81", "mg", "PATCH", "QD", "TRANSDERMAL", "WEEK 2", "16-NOV-2012", "22-APR-2013"]
["CDISCPILOT01", "713", "1106", "XANOMELINE", "54", "mg", "PATCH", "QD", "TRANSDERMAL", "WEEK 24", "23-APR-2013", "06-MAY-2013"]
["CDISCPILOT01", "713", "1141", "XANOMELINE", "54", "mg", "PATCH", "QD", "TRANSDERMAL", "BASELINE", "31-MAY-2013", "14-JUN-2013"]
["CDISCPILOT01", "713", "1141", "XANOMELINE", "81", "mg", "PATCH", "QD", "TRANSDERMAL", "WEEK 2", "15-JUN-2013", "01-JUL-2013"]
["CDISCPILOT01", "713", "1179", "PLACEBO", "0", "mg", "PATCH", "QD", "TRANSDERMAL", "BASELINE", "09-AUG-2013", "24-AUG-2013"]
["CDISCPILOT01", "713", "1179", "PLACEBO", "0", "mg", "PATCH", "QD", "TRANSDERMAL", "WEEK 2", "25-AUG-2013", "24-JAN-2014"]
["CDISCPILOT01", "713", "1179", "PLACEBO", "0", "mg", "PATCH", "QD", "TRANSDERMAL", "WEEK 24", "25-JAN-2014", "05-FEB-2014"]
["CDISCPILOT01", "713", "1209", "XANOMELINE", "54", "mg", "PATCH", "QD", "TRANSDERMAL", "BASELINE", "27-MAY-2013", "14-JUN-2013"]
["CDISCPILOT01", "713", "1209", "XANOMELINE", "81", "mg", "PATCH", "QD", "TRANSDERMAL", "WEEK 2", "15-JUN-2013", "14-NOV-2013"]
["CDISCPILOT01", "713", "1209", "XANOMELINE", "54", "mg", "PATCH", "QD", "TRANSDERMAL", "WEEK 24", "15-NOV-2013", "22-NOV-2013"]
["CDISCPILOT01", "713", "1256", "PLACEBO", "0", "mg", "PATCH", "QD", "TRANSDERMAL", "BASELINE", "19-SEP-2012", "03-OCT-2012"]
["CDISCPILOT01", "713", "1256", "PLACEBO", "0", "mg", "PATCH", "QD", "TRANSDERMAL", "WEEK 2", "04-OCT-2012", "09-MAR-2013"]
["CDISCPILOT01", "713", "1256", "PLACEBO", "0", "mg", "PATCH", "QD", "TRANSDERMAL", "WEEK 24", "10-MAR-2013", "25-MAR-2013"]
["CDISCPILOT01", "713", "1269", "PLACEBO", "0", "mg", "PATCH", "QD", "TRANSDERMAL", "BASELINE", "27-JAN-2014", "10-FEB-2014"]
["CDISCPILOT01", "713", "1269", "PLACEBO", "0", "mg", "PATCH", "QD", "TRANSDERMAL", "WEEK 2", "11-FEB-2014", "13-JUL-2014"]
["CDISCPILOT01", "713", "1269", "PLACEBO", "0", "mg", "PATCH", "QD", "TRANSDERMAL", "WEEK 24", "14-JUL-2014", "28-JUL-2014"]
["CDISCPILOT01", "713", "1448", "XANOMELINE", "54", "mg", "PATCH", "QD", "TRANSDERMAL", "BASELINE", "19-JAN-2014", "01-FEB-2014"]
["CDISCPILOT01", "713", "1448", "XANOMELINE", "54", "mg", "PATCH", "QD", "TRANSDERMAL", "WEEK 2", "02-FEB-2014", "16-MAY-2014"]
["CDISCPILOT01", "714", "1035", "PLACEBO", "0", "mg", "PATCH", "QD", "TRANSDERMAL", "BASELINE", "17-APR-2014", "01-MAY-2014"]
["CDISCPILOT01", "714", "1035", "PLACEBO", "0", "mg", "PATCH", "QD", "TRANSDERMAL", "WEEK 2", "02-MAY-2014", "02-OCT-2014"]
["CDISCPILOT01", "714", "1035", "PLACEBO", "0", "mg", "PATCH", "QD", "TRANSDERMAL", "WEEK 24", "03-OCT-2014", "16-OCT-2014"]
["CDISCPILOT01", "714", "1068", "XANOMELINE", "54", "mg", "PATCH", "QD", "TRANSDERMAL", "BASELINE", "08-AUG-2013", "22-AUG-2013"]
["CDISCPILOT01", "714", "1068", "XANOMELINE", "54", "mg", "PATCH", "QD", "TRANSDERMAL", "WEEK 2", "23-AUG-2013", "08-OCT-2013"]
["CDISCPILOT01", "714", "1195", "XANOMELINE", "54", "mg", "PATCH", "QD", "TRANSDERMAL", "BASELINE", "26-APR-2013", "09-MAY-2013"]
["CDISCPILOT01", "714", "1195", "XANOMELINE", "54", "mg", "PATCH", "QD", "TRANSDERMAL", "WEEK 2", "10-MAY-2013", "10-OCT-2013"]
["CDISCPILOT01", "714", "1195", "XANOMELINE", "54", "mg", "PATCH", "QD", "TRANSDERMAL", "WEEK 24", "11-OCT-2013", "23-OCT-2013"]
["CDISCPILOT01", "714", "1288", "XANOMELINE", "54", "mg", "PATCH", "QD", "TRANSDERMAL", "BASELINE", "04-DEC-2013", "17-DEC-2013"]
["CDISCPILOT01", "714", "1288", "XANOMELINE", "81", "mg", "PATCH", "QD", "TRANSDERMAL", "WEEK 2", "18-DEC-2013", "27-MAY-2014"]
["CDISCPILOT01", "714", "1288", "XANOMELINE", "54", "mg", "PATCH", "QD", "TRANSDERMAL", "WEEK 24", "28-MAY-2014", "17-JUN-2014"]
["CDISCPILOT01", "714", "1375", "PLACEBO", "0", "mg", "PATCH", "QD", "TRANSDERMAL", "BASELINE", "26-FEB-2013", "19-MAR-2013"]
["CDISCPILOT01", "714", "1375", "PLACEBO", "0", "mg", "PATCH", "QD", "TRANSDERMAL", "WEEK 2", "20-MAR-2013", "23-AUG-2013"]
["CDISCPILOT01", "714", "1375", "PLACEBO", "0", "mg", "PATCH", "QD", "TRANSDERMAL", "WEEK 24", "24-AUG-2013", "07-SEP-2013"]
["CDISCPILOT01", "714", "1425", "XANOMELINE", "54", "mg", "PATCH", "QD", "TRANSDERMAL", "BASELINE", "15-AUG-2013", "19-AUG-2013"]
["CDISCPILOT01", "715", "1085", "XANOMELINE", "54", "mg", "PATCH", "QD", "TRANSDERMAL", "BASELINE", "16-FEB-2013", "04-MAR-2013"]
["CDISCPILOT01", "715", "1085", "XANOMELINE", "54", "mg", "PATCH", "QD", "TRANSDERMAL", "WEEK 2", "05-MAR-2013", "04-AUG-2013"]
["CDISCPILOT01", "715", "1085", "XANOMELINE", "54", "mg", "PATCH", "QD", "TRANSDERMAL", "WEEK 24", "05-AUG-2013", "18-AUG-2013"]
["CDISCPILOT01", "715", "1107", "XANOMELINE", "54", "mg", "PATCH", "QD", "TRANSDERMAL", "BASELINE", "26-FEB-2013", "12-MAR-2013"]
["CDISCPILOT01", "715", "1107", "XANOMELINE", "54", "mg", "PATCH", "QD", "TRANSDERMAL", "WEEK 2", "13-MAR-2013", "07-MAY-2013"]
["CDISCPILOT01", "715", "1155", "PLACEBO", "0", "mg", "PATCH", "QD", "TRANSDERMAL", "BASELINE", "13-DEC-2013", "27-DEC-2013"]
["CDISCPILOT01", "715", "1155", "PLACEBO", "0", "mg", "PATCH", "QD", "TRANSDERMAL", "WEEK 2", "28-DEC-2013", "25-JAN-2014"]
["CDISCPILOT01", "715", "1207", "PLACEBO", "0", "mg", "PATCH", "QD", "TRANSDERMAL", "BASELINE", "18-NOV-2012", "02-DEC-2012"]
["CDISCPILOT01", "715", "1207", "PLACEBO", "0", "mg", "PATCH", "QD", "TRANSDERMAL", "WEEK 2", "03-DEC-2012", "05-MAY-2013"]
["CDISCPILOT01", "715", "1207", "PLACEBO", "0", "mg", "PATCH", "QD", "TRANSDERMAL", "WEEK 24", "06-MAY-2013", "27-MAY-2013"]
["CDISCPILOT01", "715", "1319", "XANOMELINE", "54", "mg", "PATCH", "QD", "TRANSDERMAL", "BASELINE", "17-FEB-2013", "03-MAR-2013"]
["CDISCPILOT01", "715", "1319", "XANOMELINE", "81", "mg", "PATCH", "QD", "TRANSDERMAL", "WEEK 2", "04-MAR-2013", "05-MAR-2013"]
["CDISCPILOT01", "715", "1321", "XANOMELINE", "54", "mg", "PATCH", "QD", "TRANSDERMAL", "BASELINE", "11-FEB-2014", "26-FEB-2014"]
["CDISCPILOT01", "715", "1321", "XANOMELINE", "81", "mg", "PATCH", "QD", "TRANSDERMAL", "WEEK 2", "27-FEB-2014", "21-APR-2014"]
["CDISCPILOT01", "715", "1397", "PLACEBO", "0", "mg", "PATCH", "QD", "TRANSDERMAL", "BASELINE", "03-APR-2013", "18-APR-2013"]
["CDISCPILOT01", "715", "1397", "PLACEBO", "0", "mg", "PATCH", "QD", "TRANSDERMAL", "WEEK 2", "19-APR-2013", "18-SEP-2013"]
["CDISCPILOT01", "715", "1397", "PLACEBO", "0", "mg", "PATCH", "QD", "TRANSDERMAL", "WEEK 24", "19-SEP-2013", "02-OCT-2013"]
["CDISCPILOT01", "715", "1405", "XANOMELINE", "54", "mg", "PATCH", "QD", "TRANSDERMAL", "BASELINE", "06-JUL-2013", "07-JUL-2013"]
["CDISCPILOT01", "716", "1024", "PLACEBO", "0", "mg", "PATCH", "QD", "TRANSDERMAL", "BASELINE", "09-JUL-2012", "23-JUL-2012"]
["CDISCPILOT01", "716", "1024", "PLACEBO", "0", "mg", "PATCH", "QD", "TRANSDERMAL", "WEEK 2", "24-JUL-2012", "30-DEC-2012"]
["CDISCPILOT01", "716", "1024", "PLACEBO", "0", "mg", "PATCH", "QD", "TRANSDERMAL", "WEEK 24", "31-DEC-2012", "20-JAN-2013"]
["CDISCPILOT01", "716", "1026", "PLACEBO", "0", "mg", "PATCH", "QD", "TRANSDERMAL", "BASELINE", "02-APR-2014", "18-APR-2014"]
["CDISCPILOT01", "716", "1026", "PLACEBO", "0", "mg", "PATCH", "QD", "TRANSDERMAL", "WEEK 2", "19-APR-2014", "27-SEP-2014"]
["CDISCPILOT01", "716", "1026", "PLACEBO", "0", "mg", "PATCH", "QD", "TRANSDERMAL", "WEEK 24", "28-SEP-2014", "16-OCT-2014"]
["CDISCPILOT01", "716", "1030", "XANOMELINE", "54", "mg", "PATCH", "QD", "TRANSDERMAL", "BASELINE", "28-DEC-2013", "02-JAN-2014"]
["CDISCPILOT01", "716", "1044", "PLACEBO", "0", "mg", "PATCH", "QD", "TRANSDERMAL", "BASELINE", "27-APR-2013", "10-MAY-2013"]
["CDISCPILOT01", "716", "1044", "PLACEBO", "0", "mg", "PATCH", "QD", "TRANSDERMAL", "WEEK 2", "11-MAY-2013", "16-OCT-2013"]
["CDISCPILOT01", "716", "1044", "PLACEBO", "0", "mg", "PATCH", "QD", "TRANSDERMAL", "WEEK 24", "17-OCT-2013", "03-NOV-2013"]
["CDISCPILOT01", "716", "1063", "XANOMELINE", "54", "mg", "PATCH", "QD", "TRANSDERMAL", "BASELINE", "09-MAY-2013", "23-MAY-2013"]
["CDISCPILOT01", "716", "1063", "XANOMELINE", "54", "mg", "PATCH", "QD", "TRANSDERMAL", "WEEK 2", "24-MAY-2013", "25-AUG-2013"]
["CDISCPILOT01", "716", "1071", "XANOMELINE", "54", "mg", "PATCH", "QD", "TRANSDERMAL", "BASELINE", "08-JUN-2013", "22-JUN-2013"]
["CDISCPILOT01", "716", "1071", "XANOMELINE", "81", "mg", "PATCH", "QD", "TRANSDERMAL", "WEEK 2", "23-JUN-2013", "01-AUG-2013"]
["CDISCPILOT01", "716", "1094", "XANOMELINE", "54", "mg", "PATCH", "QD", "TRANSDERMAL", "BASELINE", "19-DEC-2012", "06-JAN-2013"]
["CDISCPILOT01", "716", "1094", "XANOMELINE", "54", "mg", "PATCH", "QD", "TRANSDERMAL", "WEEK 2", "07-JAN-2013", "24-JAN-2013"]
["CDISCPILOT01", "716", "1103", "XANOMELINE", "54", "mg", "PATCH", "QD", "TRANSDERMAL", "BASELINE", "20-MAR-2014", "05-APR-2014"]
["CDISCPILOT01", "716", "1103", "XANOMELINE", "54", "mg", "PATCH", "QD", "TRANSDERMAL", "WEEK 2", "06-APR-2014", "30-AUG-2014"]
["CDISCPILOT01", "716", "1103", "XANOMELINE", "54", "mg", "PATCH", "QD", "TRANSDERMAL", "WEEK 24", "31-AUG-2014", "20-SEP-2014"]
["CDISCPILOT01", "716", "1108", "PLACEBO", "0", "mg", "PATCH", "QD", "TRANSDERMAL", "BASELINE", "12-FEB-2013", "26-FEB-2013"]
["CDISCPILOT01", "716", "1108", "PLACEBO", "0", "mg", "PATCH", "QD", "TRANSDERMAL", "WEEK 2", "27-FEB-2013", "02-AUG-2013"]
["CDISCPILOT01", "716", "1108", "PLACEBO", "0", "mg", "PATCH", "QD", "TRANSDERMAL", "WEEK 24", "03-AUG-2013", "10-AUG-2013"]
["CDISCPILOT01", "716", "1151", "XANOMELINE", "54", "mg", "PATCH", "QD", "TRANSDERMAL", "BASELINE", "01-FEB-2013", "15-FEB-2013"]
["CDISCPILOT01", "716", "1151", "XANOMELINE", "54", "mg", "PATCH", "QD", "TRANSDERMAL", "WEEK 2", "16-FEB-2013", "11-MAY-2013"]
["CDISCPILOT01", "716", "1157", "XANOMELINE", "54", "mg", "PATCH", "QD", "TRANSDERMAL", "BASELINE", "02-OCT-2013", "16-OCT-2013"]
["CDISCPILOT01", "716", "1157", "XANOMELINE", "54", "mg", "PATCH", "QD", "TRANSDERMAL", "WEEK 2", "17-OCT-2013", "26-MAR-2014"]
["CDISCPILOT01", "716", "1157", "XANOMELINE", "54", "mg", "PATCH", "QD", "TRANSDERMAL", "WEEK 24", "27-MAR-2014", "04-APR-2014"]
["CDISCPILOT01", "716", "1160", "PLACEBO", "0", "mg", "PATCH", "QD", "TRANSDERMAL", "BASELINE", "05-APR-2013", "19-APR-2013"]
["CDISCPILOT01", "716", "1160", "PLACEBO", "0", "mg", "PATCH", "QD", "TRANSDERMAL", "WEEK 2", "20-APR-2013", "27-SEP-2013"]
["CDISCPILOT01", "716", "1160", "PLACEBO", "0", "mg", "PATCH", "QD", "TRANSDERMAL", "WEEK 24", "28-SEP-2013", "11-OCT-2013"]
["CDISCPILOT01", "716", "1167", "XANOMELINE", "54", "mg", "PATCH", "QD", "TRANSDERMAL", "BASELINE", "08-OCT-2012", "29-OCT-2012"]
["CDISCPILOT01", "716", "1167", "XANOMELINE", "54", "mg", "PATCH", "QD", "TRANSDERMAL", "WEEK 2", "30-OCT-2012", "24-MAR-2013"]
["CDISCPILOT01", "716", "1167", "XANOMELINE", "54", "mg", "PATCH", "QD", "TRANSDERMAL", "WEEK 24", "25-MAR-2013", "12-APR-2013"]
["CDISCPILOT01", "716", "1177", "PLACEBO", "0", "mg", "PATCH", "QD", "TRANSDERMAL", "BASELINE", "02-SEP-2014", "16-SEP-2014"]
["CDISCPILOT01", "716", "1177", "PLACEBO", "0", "mg", "PATCH", "QD", "TRANSDERMAL", "WEEK 2", "17-SEP-2014", "17-FEB-2015"]
["CDISCPILOT01", "716", "1177", "PLACEBO", "0", "mg", "PATCH", "QD", "TRANSDERMAL", "WEEK 24", "18-FEB-2015", "05-MAR-2015"]
["CDISCPILOT01", "716", "1189", "XANOMELINE", "54", "mg", "PATCH", "QD", "TRANSDERMAL", "BASELINE", "09-OCT-2012", "24-OCT-2012"]
["CDISCPILOT01", "716", "1189", "XANOMELINE", "81", "mg", "PATCH", "QD", "TRANSDERMAL", "WEEK 2", "25-OCT-2012", "27-FEB-2013"]
["CDISCPILOT01", "716", "1229", "XANOMELINE", "54", "mg", "PATCH", "QD", "TRANSDERMAL", "BASELINE", "20-FEB-2013", "06-MAR-2013"]
["CDISCPILOT01", "716", "1229", "XANOMELINE", "81", "mg", "PATCH", "QD", "TRANSDERMAL", "WEEK 2", "07-MAR-2013", "31-MAR-2013"]
["CDISCPILOT01", "716", "1298", "XANOMELINE", "54", "mg", "PATCH", "QD", "TRANSDERMAL", "BASELINE", "08-APR-2013", "22-APR-2013"]
["CDISCPILOT01", "716", "1298", "XANOMELINE", "54", "mg", "PATCH", "QD", "TRANSDERMAL", "WEEK 2", "23-APR-2013", "28-JUN-2013"]
["CDISCPILOT01", "716", "1308", "PLACEBO", "0", "mg", "PATCH", "QD", "TRANSDERMAL", "BASELINE", "28-AUG-2013", "12-SEP-2013"]
["CDISCPILOT01", "716", "1308", "PLACEBO", "0", "mg", "PATCH", "QD", "TRANSDERMAL", "WEEK 2", "13-SEP-2013", "07-OCT-2013"]
["CDISCPILOT01", "716", "1311", "XANOMELINE", "54", "mg", "PATCH", "QD", "TRANSDERMAL", "BASELINE", "14-MAY-2014", "28-MAY-2014"]
["CDISCPILOT01", "716", "1311", "XANOMELINE", "54", "mg", "PATCH", "QD", "TRANSDERMAL", "WEEK 2", "29-MAY-2014", "21-SEP-2014"]
["CDISCPILOT01", "716", "1364", "XANOMELINE", "54", "mg", "PATCH", "QD", "TRANSDERMAL", "BASELINE", "04-JUL-2013", "17-JUL-2013"]
["CDISCPILOT01", "716", "1364", "XANOMELINE", "81", "mg", "PATCH", "QD", "TRANSDERMAL", "WEEK 2", "18-JUL-2013", "23-DEC-2013"]
["CDISCPILOT01", "716", "1364", "XANOMELINE", "54", "mg", "PATCH", "QD", "TRANSDERMAL", "WEEK 24", "24-DEC-2013", "09-JAN-2014"]
["CDISCPILOT01", "716", "1373", "XANOMELINE", "54", "mg", "PATCH", "QD", "TRANSDERMAL", "BASELINE", "14-DEC-2012", "30-DEC-2012"]
["CDISCPILOT01", "716", "1373", "XANOMELINE", "81", "mg", "PATCH", "QD", "TRANSDERMAL", "WEEK 2", "31-DEC-2012", "27-FEB-2013"]
["CDISCPILOT01", "716", "1418", "XANOMELINE", "54", "mg", "PATCH", "QD", "TRANSDERMAL", "BASELINE", "05-MAY-2013", "19-MAY-2013"]
["CDISCPILOT01", "716", "1418", "XANOMELINE", "81", "mg", "PATCH", "QD", "TRANSDERMAL", "WEEK 2", "20-MAY-2013", "06-NOV-2013"]
["CDISCPILOT01", "716", "1418", "XANOMELINE", "54", "mg", "PATCH", "QD", "TRANSDERMAL", "WEEK 24", "07-NOV-2013", "20-NOV-2013"]
["CDISCPILOT01", "716", "1441", "PLACEBO", "0", "mg", "PATCH", "QD", "TRANSDERMAL", "BASELINE", "22-JAN-2014", "06-FEB-2014"]
["CDISCPILOT01", "716", "1441", "PLACEBO", "0", "mg", "PATCH", "QD", "TRANSDERMAL", "WEEK 2", "07-FEB-2014", "08-JUL-2014"]
["CDISCPILOT01", "716", "1441", "PLACEBO", "0", "mg", "PATCH", "QD", "TRANSDERMAL", "WEEK 24", "09-JUL-2014", "22-JUL-2014"]
["CDISCPILOT01", "716", "1447", "XANOMELINE", "54", "mg", "PATCH", "QD", "TRANSDERMAL", "BASELINE", "16-DEC-2013", "31-DEC-2013"]
["CDISCPILOT01", "716", "1447", "XANOMELINE", "81", "mg", "PATCH", "QD", "TRANSDERMAL", "WEEK 2", "01-JAN-2014", "07-JUN-2014"]
["CDISCPILOT01", "716", "1447", "XANOMELINE", "54", "mg", "PATCH", "QD", "TRANSDERMAL", "WEEK 24", "08-JUN-2014", "17-JUN-2014"]
["CDISCPILOT01", "717", "1004", "XANOMELINE", "54", "mg", "PATCH", "QD", "TRANSDERMAL", "BASELINE", "14-JAN-2014", "28-JAN-2014"]
["CDISCPILOT01", "717", "1004", "XANOMELINE", "54", "mg", "PATCH", "QD", "TRANSDERMAL", "WEEK 2", "29-JAN-2014", "01-JUL-2014"]
["CDISCPILOT01", "717", "1004", "XANOMELINE", "54", "mg", "PATCH", "QD", "TRANSDERMAL", "WEEK 24", "02-JUL-2014", "16-JUL-2014"]
["CDISCPILOT01", "717", "1109", "XANOMELINE", "54", "mg", "PATCH", "QD", "TRANSDERMAL", "BASELINE", "27-JAN-2014", "10-FEB-2014"]
["CDISCPILOT01", "717", "1109", "XANOMELINE", "81", "mg", "PATCH", "QD", "TRANSDERMAL", "WEEK 2", "11-FEB-2014", "18-JUL-2014"]
["CDISCPILOT01", "717", "1109", "XANOMELINE", "54", "mg", "PATCH", "QD", "TRANSDERMAL", "WEEK 24", "19-JUL-2014", "28-JUL-2014"]
["CDISCPILOT01", "717", "1174", "XANOMELINE", "54", "mg", "PATCH", "QD", "TRANSDERMAL", "BASELINE", "22-JAN-2013", "04-FEB-2013"]
["CDISCPILOT01", "717", "1174", "XANOMELINE", "81", "mg", "PATCH", "QD", "TRANSDERMAL", "WEEK 2", "05-FEB-2013", "07-JUL-2013"]
["CDISCPILOT01", "717", "1174", "XANOMELINE", "54", "mg", "PATCH", "QD", "TRANSDERMAL", "WEEK 24", "08-JUL-2013", "24-JUL-2013"]
["CDISCPILOT01", "717", "1201", "PLACEBO", "0", "mg", "PATCH", "QD", "TRANSDERMAL", "BASELINE", "19-DEC-2013", "03-JAN-2014"]
["CDISCPILOT01", "717", "1201", "PLACEBO", "0", "mg", "PATCH", "QD", "TRANSDERMAL", "WEEK 2", "04-JAN-2014", "21-FEB-2014"]
["CDISCPILOT01", "717", "1344", "PLACEBO", "0", "mg", "PATCH", "QD", "TRANSDERMAL", "BASELINE", "11-JAN-2014", "24-JAN-2014"]
["CDISCPILOT01", "717", "1344", "PLACEBO", "0", "mg", "PATCH", "QD", "TRANSDERMAL", "WEEK 2", "25-JAN-2014", "14-MAR-2014"]
["CDISCPILOT01", "717", "1357", "XANOMELINE", "54", "mg", "PATCH", "QD", "TRANSDERMAL", "BASELINE", "01-MAY-2013", "15-MAY-2013"]
["CDISCPILOT01", "717", "1357", "XANOMELINE", "81", "mg", "PATCH", "QD", "TRANSDERMAL", "WEEK 2", "16-MAY-2013", "14-OCT-2013"]
["CDISCPILOT01", "717", "1446", "XANOMELINE", "54", "mg", "PATCH", "QD", "TRANSDERMAL", "BASELINE", "01-SEP-2013", "16-SEP-2013"]
["CDISCPILOT01", "717", "1446", "XANOMELINE", "54", "mg", "PATCH", "QD", "TRANSDERMAL", "WEEK 2", "17-SEP-2013", "16-FEB-2014"]
["CDISCPILOT01", "717", "1446", "XANOMELINE", "54", "mg", "PATCH", "QD", "TRANSDERMAL", "WEEK 24", "17-FEB-2014", "03-MAR-2014"]
["CDISCPILOT01", "718", "1066", "XANOMELINE", "54", "mg", "PATCH", "QD", "TRANSDERMAL", "BASELINE", "07-JUL-2013", "16-JUL-2013"]
["CDISCPILOT01", "718", "1079", "XANOMELINE", "54", "mg", "PATCH", "QD", "TRANSDERMAL", "BASELINE", "19-SEP-2012", "03-OCT-2012"]
["CDISCPILOT01", "718", "1079", "XANOMELINE", "54", "mg", "PATCH", "QD", "TRANSDERMAL", "WEEK 2", "04-OCT-2012", "31-OCT-2012"]
["CDISCPILOT01", "718", "1101", "XANOMELINE", "54", "mg", "PATCH", "QD", "TRANSDERMAL", "BASELINE", "17-FEB-2013", "03-MAR-2013"]
["CDISCPILOT01", "718", "1101", "XANOMELINE", "81", "mg", "PATCH", "QD", "TRANSDERMAL", "WEEK 2", "04-MAR-2013", "31-JUL-2013"]
["CDISCPILOT01", "718", "1139", "PLACEBO", "0", "mg", "PATCH", "QD", "TRANSDERMAL", "BASELINE", "19-MAY-2013", "02-JUN-2013"]
["CDISCPILOT01", "718", "1139", "PLACEBO", "0", "mg", "PATCH", "QD", "TRANSDERMAL", "WEEK 2", "03-JUN-2013", "03-NOV-2013"]
["CDISCPILOT01", "718", "1139", "PLACEBO", "0", "mg", "PATCH", "QD", "TRANSDERMAL", "WEEK 24", "04-NOV-2013", "17-NOV-2013"]
["CDISCPILOT01", "718", "1150", "PLACEBO", "0", "mg", "PATCH", "QD", "TRANSDERMAL", "BASELINE", "19-JAN-2013", "02-FEB-2013"]
["CDISCPILOT01", "718", "1150", "PLACEBO", "0", "mg", "PATCH", "QD", "TRANSDERMAL", "WEEK 2", "03-FEB-2013", "07-JUL-2013"]
["CDISCPILOT01", "718", "1150", "PLACEBO", "0", "mg", "PATCH", "QD", "TRANSDERMAL", "WEEK 24", "08-JUL-2013", "29-JUL-2013"]
["CDISCPILOT01", "718", "1170", "XANOMELINE", "54", "mg", "PATCH", "QD", "TRANSDERMAL", "BASELINE", "16-SEP-2013", "29-SEP-2013"]
["CDISCPILOT01", "718", "1170", "XANOMELINE", "54", "mg", "PATCH", "QD", "TRANSDERMAL", "WEEK 2", "30-SEP-2013", "12-OCT-2013"]
["CDISCPILOT01", "718", "1172", "PLACEBO", "0", "mg", "PATCH", "QD", "TRANSDERMAL", "BASELINE", "21-SEP-2013", "05-OCT-2013"]
["CDISCPILOT01", "718", "1172", "PLACEBO", "0", "mg", "PATCH", "QD", "TRANSDERMAL", "WEEK 2", "06-OCT-2013", "29-NOV-2013"]
["CDISCPILOT01", "718", "1250", "XANOMELINE", "54", "mg", "PATCH", "QD", "TRANSDERMAL", "BASELINE", "21-SEP-2013", "03-OCT-2013"]
["CDISCPILOT01", "718", "1250", "XANOMELINE", "54", "mg", "PATCH", "QD", "TRANSDERMAL", "WEEK 2", "04-OCT-2013", "31-JAN-2014"]
["CDISCPILOT01", "718", "1254", "XANOMELINE", "54", "mg", "PATCH", "QD", "TRANSDERMAL", "BASELINE", "10-JUL-2013", "25-JUL-2013"]
["CDISCPILOT01", "718", "1254", "XANOMELINE", "54", "mg", "PATCH", "QD", "TRANSDERMAL", "WEEK 2", "26-JUL-2013", "26-DEC-2013"]
["CDISCPILOT01", "718", "1254", "XANOMELINE", "54", "mg", "PATCH", "QD", "TRANSDERMAL", "WEEK 24", "27-DEC-2013", "09-JAN-2014"]
["CDISCPILOT01", "718", "1328", "XANOMELINE", "54", "mg", "PATCH", "QD", "TRANSDERMAL", "BASELINE", "01-FEB-2013", "14-FEB-2013"]
["CDISCPILOT01", "718", "1328", "XANOMELINE", "81", "mg", "PATCH", "QD", "TRANSDERMAL", "WEEK 2", "15-FEB-2013", "18-APR-2013"]
["CDISCPILOT01", "718", "1355", "PLACEBO", "0", "mg", "PATCH", "QD", "TRANSDERMAL", "BASELINE", "28-FEB-2013", "16-MAR-2013"]
["CDISCPILOT01", "718", "1355", "PLACEBO", "0", "mg", "PATCH", "QD", "TRANSDERMAL", "WEEK 2", "17-MAR-2013", "15-AUG-2013"]
["CDISCPILOT01", "718", "1355", "PLACEBO", "0", "mg", "PATCH", "QD", "TRANSDERMAL", "WEEK 24", "16-AUG-2013", "29-AUG-2013"]
["CDISCPILOT01", "718", "1371", "XANOMELINE", "54", "mg", "PATCH", "QD", "TRANSDERMAL", "BASELINE", "26-APR-2013", "08-MAY-2013"]
["CDISCPILOT01", "718", "1371", "XANOMELINE", "81", "mg", "PATCH", "QD", "TRANSDERMAL", "WEEK 2", "09-MAY-2013", "01-AUG-2013"]
["CDISCPILOT01", "718", "1427", "XANOMELINE", "54", "mg", "PATCH", "QD", "TRANSDERMAL", "BASELINE", "17-DEC-2012", "31-DEC-2012"]
["CDISCPILOT01", "718", "1427", "XANOMELINE", "81", "mg", "PATCH", "QD", "TRANSDERMAL", "WEEK 2", "01-JAN-2013", "11-FEB-2013"]
