{"datasetJSONCreationDateTime": "2024-02-14T11:46:09", "datasetJSONVersion": "1.1.0", "fileOID": "CDISCPILOT01.ie", "originator": "360i", "studyOID": "CDISCPILOT01", "metaDataVersionOID": "MDV.CDISCPILOT01", "itemGroupOID": "IG.IE", "records": 3, "name": "ie", "label": "Inclusion/Exclusion Criteria Not Met (IE", "columns": [{"itemOID": "IT.IE.STUDYID", "name": "STUDYID", "label": "Study Identifier", "dataType": "string", "length": 12, "displayFormat": "."}, {"itemOID": "IT.IE.SITEID", "name": "SITEID", "label": "Study Site Identifier", "dataType": "string", "length": 3, "displayFormat": "."}, {"itemOID": "IT.IE.SUBJID", "name": "SUBJID", "label": "Subject Identifier for the Study", "dataType": "string", "length": 4, "displayFormat": "."}, {"itemOID": "IT.IE.VISIT", "name": "VISIT", "label": "Visit Name", "dataType": "string", "length": 19, "displayFormat": "."}, {"itemOID": "IT.IE.VISDAT", "name": "VISDAT", "label": "Visit Date", "dataType": "string", "length": 11, "displayFormat": "."}, {"itemOID": "IT.IE.IEYN", "name": "IEYN", "label": "Any Inclusion/Exclusion Criteria Finding", "dataType": "string", "length": 3, "displayFormat": "."}, {"itemOID": "IT.IE.IEDAT", "name": "IEDAT", "label": "Date of Inclusion/Exclusion Collection", "dataType": "string", "length": 11, "displayFormat": "."}, {"itemOID": "IT.IE.IECAT", "name": "IECAT", "label": "Category of Inclusion/Exclusion Criteria", "dataType": "string", "length": 9, "displayFormat": "."}, {"itemOID": "IT.IE.IETESTCD", "name": "IETESTCD", "label": "Inclusion/Exclusion Criterion Short Name", "dataType": "string", "length": 16, "displayFormat": "."}, {"itemOID": "IT.IE.IETEST", "name": "IETEST", "label": "Inclusion/Exclusion Criterion", "dataType": "string", "length": 166, "displayFormat": "."}, {"itemOID": "IT.IE.IEORRES", "name": "IEORRES", "label": "I/E Criterion Result", "dataType": "string", "length": 3, "displayFormat": "."}]}
["CDISCPILOT01", "703", "1175", "WEEK 2", "31-DEC-2013", "Yes", "31-DEC-2013", "EXCLUSION", "EXCL16", "Evidence from ECG recording at screening of any listed condition.", "Yes"]
["CDISCPILOT01", "705", "1382", "WEEK 2", "13-MAY-2013", "Yes", "13-MAY-2013", "EXCLUSION", "EXCL25", "A history within the last 5 years of a primary or recurrent malignant disease (with exceptions, see list in protocol).", "Yes"]
["CDISCPILOT01", "708", "1372", "WEEK 2", "10-MAY-2013", "Yes", "10-MAY-2013", "EXCLUSION", "EXCL16", "Evidence from ECG recording at screening of any listed condition.", "Yes"]
