{"datasetJSONCreationDateTime": "2024-02-14T11:46:13", "datasetJSONVersion": "1.1.0", "fileOID": "CDISCPILOT01.vs", "originator": "360i", "studyOID": "CDISCPILOT01", "metaDataVersionOID": "MDV.CDISCPILOT01", "itemGroupOID": "IG.VS", "records": 8211, "name": "vs", "label": "Vital Signs (VS)", "columns": [{"itemOID": "IT.VS.STUDYID", "name": "STUDYID", "label": "Study Identifier", "dataType": "string", "length": 12, "displayFormat": "."}, {"itemOID": "IT.VS.SITEID", "name": "SITEID", "label": "Study Site Identifier", "dataType": "string", "length": 3, "displayFormat": "."}, {"itemOID": "IT.VS.SUBJID", "name": "SUBJID", "label": "Subject Identifier for the Study", "dataType": "string", "length": 4, "displayFormat": "."}, {"itemOID": "IT.VS.DIABP_VSPOS", "name": "DIABP_VSPOS", "label": "Diastolic Blood Pressure Position of Subject", "dataType": "string", "length": 8, "displayFormat": "."}, {"itemOID": "IT.VS.SYSBP_VSPOS", "name": "SYSBP_VSPOS", "label": "Systolic Blood Pressure Position of Subject", "dataType": "string", "length": 8, "displayFormat": "."}, {"itemOID": "IT.VS.PULSE_VSPOS", "name": "PULSE_VSPOS", "label": "Pulse Position of Subject", "dataType": "string", "length": 8, "displayFormat": "."}, {"itemOID": "IT.VS.DIABP_VSORRES", "name": "DIABP_VSORRES", "label": "Diastolic Blood Pressure", "dataType": "string", "length": 5, "displayFormat": "."}, {"itemOID": "IT.VS.HEIGHT_VSORRES", "name": "HEIGHT_VSORRES", "label": "Height", "dataType": "string", "length": 5, "displayFormat": "."}, {"itemOID": "IT.VS.PULSE_VSORRES", "name": "PULSE_VSORRES", "label": "Pulse Rate", "dataType": "string", "length": 5, "displayFormat": "."}, {"itemOID": "IT.VS.SYSBP_VSORRES", "name": "SYSBP_VSORRES", "label": "Systolic Blood Pressure", "dataType": "string", "length": 5, "displayFormat": "."}, {"itemOID": "IT.VS.TEMP_VSORRES", "name": "TEMP_VSORRES", "label": "Temperature", "dataType": "string", "length": 5, "displayFormat": "."}, {"itemOID": "IT.VS.WEIGHT_VSORRES", "name": "WEIGHT_VSORRES", "label": "Weight", "dataType": "string", "length": 5, "displayFormat": "."}, {"itemOID": "IT.VS.DIABP_VSORRESU", "name": "DIABP_VSORRESU", "label": "Diastolic Blood Pressure Original Unit", "dataType": "string", "length": 200, "displayFormat": "."}, {"itemOID": "IT.VS.HEIGHT_VSORRESU", "name": "HEIGHT_VSORRESU", "label": "Height Original Unit", "dataType": "string", "length": 200, "displayFormat": "."}, {"itemOID": "IT.VS.PULSE_VSORRESU", "name": "PULSE_VSORRESU", "label": "Pulse Rate Original Unit", "dataType": "string", "length": 200, "displayFormat": "."}, {"itemOID": "IT.VS.SYSBP_VSORRESU", "name": "SYSBP_VSORRESU", "label": "Systolic Blood Pressure Original Unit", "dataType": "string", "length": 200, "displayFormat": "."}, {"itemOID": "IT.VS.TEMP_VSORRESU", "name": "TEMP_VSORRESU", "label": "Temperature Original Unit", "dataType": "string", "length": 200, "displayFormat": "."}, {"itemOID": "IT.VS.WEIGHT_VSORRESU", "name": "WEIGHT_VSORRESU", "label": "Weight Original Unit", "dataType": "string", "length": 200, "displayFormat": "."}, {"itemOID": "IT.VS.DIABP_VSSTAT", "name": "DIABP_VSSTAT", "label": "Diastolic Blood Pressure Completion Status", "dataType": "string", "length": 8, "displayFormat": "."}, {"itemOID": "IT.VS.HEIGHT_VSSTAT", "name": "HEIGHT_VSSTAT", "label": "Height Completion Status", "dataType": "string", "length": 8, "displayFormat": "."}, {"itemOID": "IT.VS.PULSE_VSSTAT", "name": "PULSE_VSSTAT", "label": "Pulse Rate Completion Status", "dataType": "string", "length": 8, "displayFormat": "."}, {"itemOID": "IT.VS.SYSBP_VSSTAT", "name": "SYSBP_VSSTAT", "label": "Systolic Blood Pressure Completion Status", "dataType": "string", "length": 8, "displayFormat": "."}, {"itemOID": "IT.VS.TEMP_VSSTAT", "name": "TEMP_VSSTAT", "label": "Temperature Completion Status", "dataType": "string", "length": 8, "displayFormat": "."}, {"itemOID": "IT.VS.WEIGHT_VSSTAT", "name": "WEIGHT_VSSTAT", "label": "Weight Completion Status", "dataType": "string", "length": 8, "displayFormat": "."}, {"itemOID": "IT.VS.TEMP_VSLOC", "name": "TEMP_VSLOC", "label": "Temperature Location", "dataType": "string", "length": 200, "displayFormat": "."}, {"itemOID": "IT.VS.VISIT", "name": "VISIT", "label": "Visit Name", "dataType": "string", "length": 19, "displayFormat": "."}, {"itemOID": "IT.VS.VISDAT", "name": "VISDAT", "label": "Visit Date", "dataType": "string", "length": 11, "displayFormat": "."}, {"itemOID": "IT.VS.DIABP_VSDAT", "name": "DIABP_VSDAT", "label": "Diastolic Blood Pressure Date", "dataType": "string", "length": 11, "displayFormat": "."}, {"itemOID": "IT.VS.HEIGHT_VSDAT", "name": "HEIGHT_VSDAT", "label": "Height Date", "dataType": "string", "length": 11, "displayFormat": "."}, {"itemOID": "IT.VS.PULSE_VSDAT", "name": "PULSE_VSDAT", "label": "Pulse Rate Date", "dataType": "string", "length": 11, "displayFormat": "."}, {"itemOID": "IT.VS.SYSBP_VSDAT", "name": "SYSBP_VSDAT", "label": "Systolic Blood Pressure Date", "dataType": "string", "length": 11, "displayFormat": "."}, {"itemOID": "IT.VS.TEMP_VSDAT", "name": "TEMP_VSDAT", "label": "Temperature Date", "dataType": "string", "length": 11, "displayFormat": "."}, {"itemOID": "IT.VS.WEIGHT_VSDAT", "name": "WEIGHT_VSDAT", "label": "Weight Date", "dataType": "string", "length": 11, "displayFormat": "."}, {"itemOID": "IT.VS.DIABP_VSTPT", "name": "DIABP_VSTPT", "label": "Diastolic Blood Pressure Planned Time Point Name", "dataType": "string", "length": 30, "displayFormat": "."}, {"itemOID": "IT.VS.SYSBP_VSTPT", "name": "SYSBP_VSTPT", "label": "Systolic Blood Pressure Planned Time Point Name", "dataType": "string", "length": 30, "displayFormat": "."}, {"itemOID": "IT.VS.PULSE_VSTPT", "name": "PULSE_VSTPT", "label": "Pulse Planned Time Point Name", "dataType": "string", "length": 30, "displayFormat": "."}, {"itemOID": "IT.VS.DIABP_VSTPTNUM", "name": "DIABP_VSTPTNUM", "label": "Diastolic Blood Pressure Planned Time Point Number", "dataType": "float", "length": 8, "displayFormat": "."}, {"itemOID": "IT.VS.SYSBP_VSTPTNUM", "name": "SYSBP_VSTPTNUM", "label": "Systolic Blood Pressure Planned Time Point Number", "dataType": "float", "length": 8, "displayFormat": "."}, {"itemOID": "IT.VS.PULSE_VSTPTNUM", "name": "PULSE_VSTPTNUM", "label": "Pulse Planned Time Point Number", "dataType": "float", "length": 8, "displayFormat": "."}]}
["CDISCPILOT01", "701", "1015", "SUPINE", "SUPINE", "SUPINE", "64", "58.0", "57", "131", "96.9", "119.0", "mmHg", "IN", "BEATS/MIN", "mmHg", "F", "LB", "", "", "", "", "", "", "ORAL CAVITY", "SCREENING 1", "26-DEC-2013", "26-DEC-2013", "26-DEC-2013", "26-DEC-2013", "26-DEC-2013", "26-DEC-2013", "26-DEC-2013", "AFTER LYING DOWN FOR 5 MINUTES", "AFTER LYING DOWN FOR 5 MINUTES", "AFTER LYING DOWN FOR 5 MINUTES", 815, 815, 815]
["CDISCPILOT01", "701", "1015", "STANDING", "STANDING", "STANDING", "83", "", "62", "129", "", "", "mmHg", "", "BEATS/MIN", "mmHg", "", "", "", "", "", "", "", "", "", "SCREENING 1", "26-DEC-2013", "26-DEC-2013", "", "26-DEC-2013", "26-DEC-2013", "", "", "AFTER STANDING FOR 1 MINUTE", "AFTER STANDING FOR 1 MINUTE", "AFTER STANDING FOR 1 MINUTE", 816, 816, 816]
["CDISCPILOT01", "701", "1015", "STANDING", "STANDING", "STANDING", "57", "", "65", "147", "", "", "mmHg", "", "BEATS/MIN", "mmHg", "", "", "", "", "", "", "", "", "", "SCREENING 1", "26-DEC-2013", "26-DEC-2013", "", "26-DEC-2013", "26-DEC-2013", "", "", "AFTER STANDING FOR 3 MINUTES", "AFTER STANDING FOR 3 MINUTES", "AFTER STANDING FOR 3 MINUTES", 817, 817, 817]
["CDISCPILOT01", "701", "1015", "SUPINE", "SUPINE", "SUPINE", "68", "", "56", "138", "97.0", "", "mmHg", "", "BEATS/MIN", "mmHg", "F", "", "", "", "", "", "", "", "ORAL CAVITY", "SCREENING 2", "31-DEC-2013", "31-DEC-2013", "", "31-DEC-2013", "31-DEC-2013", "31-DEC-2013", "", "AFTER LYING DOWN FOR 5 MINUTES", "AFTER LYING DOWN FOR 5 MINUTES", "AFTER LYING DOWN FOR 5 MINUTES", 815, 815, 815]
["CDISCPILOT01", "701", "1015", "STANDING", "STANDING", "STANDING", "59", "", "60", "137", "", "", "mmHg", "", "BEATS/MIN", "mmHg", "", "", "", "", "", "", "", "", "", "SCREENING 2", "31-DEC-2013", "31-DEC-2013", "", "31-DEC-2013", "31-DEC-2013", "", "", "AFTER STANDING FOR 1 MINUTE", "AFTER STANDING FOR 1 MINUTE", "AFTER STANDING FOR 1 MINUTE", 816, 816, 816]
["CDISCPILOT01", "701", "1015", "STANDING", "STANDING", "STANDING", "71", "", "57", "145", "", "", "mmHg", "", "BEATS/MIN", "mmHg", "", "", "", "", "", "", "", "", "", "SCREENING 2", "31-DEC-2013", "31-DEC-2013", "", "31-DEC-2013", "31-DEC-2013", "", "", "AFTER STANDING FOR 3 MINUTES", "AFTER STANDING FOR 3 MINUTES", "AFTER STANDING FOR 3 MINUTES", 817, 817, 817]
["CDISCPILOT01", "701", "1015", "SUPINE", "SUPINE", "SUPINE", "56", "", "56", "130", "97.2", "120.0", "mmHg", "", "BEATS/MIN", "mmHg", "F", "LB", "", "", "", "", "", "", "ORAL CAVITY", "BASELINE", "02-JAN-2014", "02-JAN-2014", "", "02-JAN-2014", "02-JAN-2014", "02-JAN-2014", "02-JAN-2014", "AFTER LYING DOWN FOR 5 MINUTES", "AFTER LYING DOWN FOR 5 MINUTES", "AFTER LYING DOWN FOR 5 MINUTES", 815, 815, 815]
["CDISCPILOT01", "701", "1015", "STANDING", "STANDING", "STANDING", "51", "", "59", "121", "", "", "mmHg", "", "BEATS/MIN", "mmHg", "", "", "", "", "", "", "", "", "", "BASELINE", "02-JAN-2014", "02-JAN-2014", "", "02-JAN-2014", "02-JAN-2014", "", "", "AFTER STANDING FOR 1 MINUTE", "AFTER STANDING FOR 1 MINUTE", "AFTER STANDING FOR 1 MINUTE", 816, 816, 816]
["CDISCPILOT01", "701", "1015", "STANDING", "STANDING", "STANDING", "61", "", "59", "131", "", "", "mmHg", "", "BEATS/MIN", "mmHg", "", "", "", "", "", "", "", "", "", "BASELINE", "02-JAN-2014", "02-JAN-2014", "", "02-JAN-2014", "02-JAN-2014", "", "", "AFTER STANDING FOR 3 MINUTES", "AFTER STANDING FOR 3 MINUTES", "AFTER STANDING FOR 3 MINUTES", 817, 817, 817]
["CDISCPILOT01", "701", "1015", "SUPINE", "SUPINE", "SUPINE", "67", "", "61", "137", "96.6", "", "mmHg", "", "BEATS/MIN", "mmHg", "F", "", "", "", "", "", "", "", "ORAL CAVITY", "AMBUL ECG PLACEMENT", "14-JAN-2014", "14-JAN-2014", "", "14-JAN-2014", "14-JAN-2014", "14-JAN-2014", "", "AFTER LYING DOWN FOR 5 MINUTES", "AFTER LYING DOWN FOR 5 MINUTES", "AFTER LYING DOWN FOR 5 MINUTES", 815, 815, 815]
["CDISCPILOT01", "701", "1015", "STANDING", "STANDING", "STANDING", "61", "", "65", "127", "", "", "mmHg", "", "BEATS/MIN", "mmHg", "", "", "", "", "", "", "", "", "", "AMBUL ECG PLACEMENT", "14-JAN-2014", "14-JAN-2014", "", "14-JAN-2014", "14-JAN-2014", "", "", "AFTER STANDING FOR 1 MINUTE", "AFTER STANDING FOR 1 MINUTE", "AFTER STANDING FOR 1 MINUTE", 816, 816, 816]
["CDISCPILOT01", "701", "1015", "STANDING", "STANDING", "STANDING", "65", "", "61", "146", "", "", "mmHg", "", "BEATS/MIN", "mmHg", "", "", "", "", "", "", "", "", "", "AMBUL ECG PLACEMENT", "14-JAN-2014", "14-JAN-2014", "", "14-JAN-2014", "14-JAN-2014", "", "", "AFTER STANDING FOR 3 MINUTES", "AFTER STANDING FOR 3 MINUTES", "AFTER STANDING FOR 3 MINUTES", 817, 817, 817]
["CDISCPILOT01", "701", "1015", "SUPINE", "SUPINE", "SUPINE", "56", "", "58", "114", "97.7", "117.0", "mmHg", "", "BEATS/MIN", "mmHg", "F", "LB", "", "", "", "", "", "", "ORAL CAVITY", "WEEK 2", "16-JAN-2014", "16-JAN-2014", "", "16-JAN-2014", "16-JAN-2014", "16-JAN-2014", "16-JAN-2014", "AFTER LYING DOWN FOR 5 MINUTES", "AFTER LYING DOWN FOR 5 MINUTES", "AFTER LYING DOWN FOR 5 MINUTES", 815, 815, 815]
["CDISCPILOT01", "701", "1015", "STANDING", "STANDING", "STANDING", "50", "", "61", "121", "", "", "mmHg", "", "BEATS/MIN", "mmHg", "", "", "", "", "", "", "", "", "", "WEEK 2", "16-JAN-2014", "16-JAN-2014", "", "16-JAN-2014", "16-JAN-2014", "", "", "AFTER STANDING FOR 1 MINUTE", "AFTER STANDING FOR 1 MINUTE", "AFTER STANDING FOR 1 MINUTE", 816, 816, 816]
["CDISCPILOT01", "701", "1015", "STANDING", "STANDING", "STANDING", "54", "", "62", "132", "", "", "mmHg", "", "BEATS/MIN", "mmHg", "", "", "", "", "", "", "", "", "", "WEEK 2", "16-JAN-2014", "16-JAN-2014", "", "16-JAN-2014", "16-JAN-2014", "", "", "AFTER STANDING FOR 3 MINUTES", "AFTER STANDING FOR 3 MINUTES", "AFTER STANDING FOR 3 MINUTES", 817, 817, 817]
["CDISCPILOT01", "701", "1015", "SUPINE", "SUPINE", "SUPINE", "64", "", "59", "138", "97.0", "119.0", "mmHg", "", "BEATS/MIN", "mmHg", "F", "LB", "", "", "", "", "", "", "ORAL CAVITY", "WEEK 4", "30-JAN-2014", "30-JAN-2014", "", "30-JAN-2014", "30-JAN-2014", "30-JAN-2014", "30-JAN-2014", "AFTER LYING DOWN FOR 5 MINUTES", "AFTER LYING DOWN FOR 5 MINUTES", "AFTER LYING DOWN FOR 5 MINUTES", 815, 815, 815]
["CDISCPILOT01", "701", "1015", "STANDING", "STANDING", "STANDING", "55", "", "62", "137", "", "", "mmHg", "", "BEATS/MIN", "mmHg", "", "", "", "", "", "", "", "", "", "WEEK 4", "30-JAN-2014", "30-JAN-2014", "", "30-JAN-2014", "30-JAN-2014", "", "", "AFTER STANDING FOR 1 MINUTE", "AFTER STANDING FOR 1 MINUTE", "AFTER STANDING FOR 1 MINUTE", 816, 816, 816]
["CDISCPILOT01", "701", "1015", "STANDING", "STANDING", "STANDING", "53", "", "59", "132", "", "", "mmHg", "", "BEATS/MIN", "mmHg", "", "", "", "", "", "", "", "", "", "WEEK 4", "30-JAN-2014", "30-JAN-2014", "", "30-JAN-2014", "30-JAN-2014", "", "", "AFTER STANDING FOR 3 MINUTES", "AFTER STANDING FOR 3 MINUTES", "AFTER STANDING FOR 3 MINUTES", 817, 817, 817]
["CDISCPILOT01", "701", "1015", "SUPINE", "SUPINE", "SUPINE", "72", "", "67", "138", "97.5", "", "mmHg", "", "BEATS/MIN", "mmHg", "F", "", "", "", "", "", "", "", "ORAL CAVITY", "AMBUL ECG REMOVAL", "01-FEB-2014", "01-FEB-2014", "", "01-FEB-2014", "01-FEB-2014", "01-FEB-2014", "", "AFTER LYING DOWN FOR 5 MINUTES", "AFTER LYING DOWN FOR 5 MINUTES", "AFTER LYING DOWN FOR 5 MINUTES", 815, 815, 815]
["CDISCPILOT01", "701", "1015", "STANDING", "STANDING", "STANDING", "61", "", "69", "131", "", "", "mmHg", "", "BEATS/MIN", "mmHg", "", "", "", "", "", "", "", "", "", "AMBUL ECG REMOVAL", "01-FEB-2014", "01-FEB-2014", "", "01-FEB-2014", "01-FEB-2014", "", "", "AFTER STANDING FOR 1 MINUTE", "AFTER STANDING FOR 1 MINUTE", "AFTER STANDING FOR 1 MINUTE", 816, 816, 816]
["CDISCPILOT01", "701", "1015", "STANDING", "STANDING", "STANDING", "53", "", "65", "123", "", "", "mmHg", "", "BEATS/MIN", "mmHg", "", "", "", "", "", "", "", "", "", "AMBUL ECG REMOVAL", "01-FEB-2014", "01-FEB-2014", "", "01-FEB-2014", "01-FEB-2014", "", "", "AFTER STANDING FOR 3 MINUTES", "AFTER STANDING FOR 3 MINUTES", "AFTER STANDING FOR 3 MINUTES", 817, 817, 817]
["CDISCPILOT01", "701", "1015", "SUPINE", "SUPINE", "SUPINE", "55", "", "55", "148", "97.4", "117.0", "mmHg", "", "BEATS/MIN", "mmHg", "F", "LB", "", "", "", "", "", "", "ORAL CAVITY", "WEEK 6", "12-FEB-2014", "12-FEB-2014", "", "12-FEB-2014", "12-FEB-2014", "12-FEB-2014", "12-FEB-2014", "AFTER LYING DOWN FOR 5 MINUTES", "AFTER LYING DOWN FOR 5 MINUTES", "AFTER LYING DOWN FOR 5 MINUTES", 815, 815, 815]
["CDISCPILOT01", "701", "1015", "STANDING", "STANDING", "STANDING", "63", "", "56", "137", "", "", "mmHg", "", "BEATS/MIN", "mmHg", "", "", "", "", "", "", "", "", "", "WEEK 6", "12-FEB-2014", "12-FEB-2014", "", "12-FEB-2014", "12-FEB-2014", "", "", "AFTER STANDING FOR 1 MINUTE", "AFTER STANDING FOR 1 MINUTE", "AFTER STANDING FOR 1 MINUTE", 816, 816, 816]
["CDISCPILOT01", "701", "1015", "STANDING", "STANDING", "STANDING", "60", "", "57", "138", "", "", "mmHg", "", "BEATS/MIN", "mmHg", "", "", "", "", "", "", "", "", "", "WEEK 6", "12-FEB-2014", "12-FEB-2014", "", "12-FEB-2014", "12-FEB-2014", "", "", "AFTER STANDING FOR 3 MINUTES", "AFTER STANDING FOR 3 MINUTES", "AFTER STANDING FOR 3 MINUTES", 817, 817, 817]
["CDISCPILOT01", "701", "1015", "SUPINE", "SUPINE", "SUPINE", "67", "", "57", "138", "98.0", "117.0", "mmHg", "", "BEATS/MIN", "mmHg", "F", "LB", "", "", "", "", "", "", "ORAL CAVITY", "WEEK 8", "05-MAR-2014", "05-MAR-2014", "", "05-MAR-2014", "05-MAR-2014", "05-MAR-2014", "05-MAR-2014", "AFTER LYING DOWN FOR 5 MINUTES", "AFTER LYING DOWN FOR 5 MINUTES", "AFTER LYING DOWN FOR 5 MINUTES", 815, 815, 815]
["CDISCPILOT01", "701", "1015", "STANDING", "STANDING", "STANDING", "62", "", "60", "146", "", "", "mmHg", "", "BEATS/MIN", "mmHg", "", "", "", "", "", "", "", "", "", "WEEK 8", "05-MAR-2014", "05-MAR-2014", "", "05-MAR-2014", "05-MAR-2014", "", "", "AFTER STANDING FOR 1 MINUTE", "AFTER STANDING FOR 1 MINUTE", "AFTER STANDING FOR 1 MINUTE", 816, 816, 816]
["CDISCPILOT01", "701", "1015", "STANDING", "STANDING", "STANDING", "71", "", "57", "140", "", "", "mmHg", "", "BEATS/MIN", "mmHg", "", "", "", "", "", "", "", "", "", "WEEK 8", "05-MAR-2014", "05-MAR-2014", "", "05-MAR-2014", "05-MAR-2014", "", "", "AFTER STANDING FOR 3 MINUTES", "AFTER STANDING FOR 3 MINUTES", "AFTER STANDING FOR 3 MINUTES", 817, 817, 817]
["CDISCPILOT01", "701", "1015", "SUPINE", "SUPINE", "SUPINE", "68", "", "54", "139", "97.4", "117.0", "mmHg", "", "BEATS/MIN", "mmHg", "F", "LB", "", "", "", "", "", "", "ORAL CAVITY", "WEEK 12", "26-MAR-2014", "26-MAR-2014", "", "26-MAR-2014", "26-MAR-2014", "26-MAR-2014", "26-MAR-2014", "AFTER LYING DOWN FOR 5 MINUTES", "AFTER LYING DOWN FOR 5 MINUTES", "AFTER LYING DOWN FOR 5 MINUTES", 815, 815, 815]
["CDISCPILOT01", "701", "1015", "STANDING", "STANDING", "STANDING", "60", "", "53", "146", "", "", "mmHg", "", "BEATS/MIN", "mmHg", "", "", "", "", "", "", "", "", "", "WEEK 12", "26-MAR-2014", "26-MAR-2014", "", "26-MAR-2014", "26-MAR-2014", "", "", "AFTER STANDING FOR 1 MINUTE", "AFTER STANDING FOR 1 MINUTE", "AFTER STANDING FOR 1 MINUTE", 816, 816, 816]
["CDISCPILOT01", "701", "1015", "STANDING", "STANDING", "STANDING", "64", "", "52", "138", "", "", "mmHg", "", "BEATS/MIN", "mmHg", "", "", "", "", "", "", "", "", "", "WEEK 12", "26-MAR-2014", "26-MAR-2014", "", "26-MAR-2014", "26-MAR-2014", "", "", "AFTER STANDING FOR 3 MINUTES", "AFTER STANDING FOR 3 MINUTES", "AFTER STANDING FOR 3 MINUTES", 817, 817, 817]
["CDISCPILOT01", "701", "1015", "SUPINE", "SUPINE", "SUPINE", "66", "", "60", "163", "97.9", "117.0", "mmHg", "", "BEATS/MIN", "mmHg", "F", "LB", "", "", "", "", "", "", "ORAL CAVITY", "WEEK 16", "07-MAY-2014", "07-MAY-2014", "", "07-MAY-2014", "07-MAY-2014", "07-MAY-2014", "07-MAY-2014", "AFTER LYING DOWN FOR 5 MINUTES", "AFTER LYING DOWN FOR 5 MINUTES", "AFTER LYING DOWN FOR 5 MINUTES", 815, 815, 815]
["CDISCPILOT01", "701", "1015", "STANDING", "STANDING", "STANDING", "68", "", "55", "145", "", "", "mmHg", "", "BEATS/MIN", "mmHg", "", "", "", "", "", "", "", "", "", "WEEK 16", "07-MAY-2014", "07-MAY-2014", "", "07-MAY-2014", "07-MAY-2014", "", "", "AFTER STANDING FOR 1 MINUTE", "AFTER STANDING FOR 1 MINUTE", "AFTER STANDING FOR 1 MINUTE", 816, 816, 816]
["CDISCPILOT01", "701", "1015", "STANDING", "STANDING", "STANDING", "66", "", "61", "152", "", "", "mmHg", "", "BEATS/MIN", "mmHg", "", "", "", "", "", "", "", "", "", "WEEK 16", "07-MAY-2014", "07-MAY-2014", "", "07-MAY-2014", "07-MAY-2014", "", "", "AFTER STANDING FOR 3 MINUTES", "AFTER STANDING FOR 3 MINUTES", "AFTER STANDING FOR 3 MINUTES", 817, 817, 817]
["CDISCPILOT01", "701", "1015", "SUPINE", "SUPINE", "SUPINE", "67", "", "54", "137", "97.4", "117.0", "mmHg", "", "BEATS/MIN", "mmHg", "F", "LB", "", "", "", "", "", "", "ORAL CAVITY", "WEEK 20", "21-MAY-2014", "21-MAY-2014", "", "21-MAY-2014", "21-MAY-2014", "21-MAY-2014", "21-MAY-2014", "AFTER LYING DOWN FOR 5 MINUTES", "AFTER LYING DOWN FOR 5 MINUTES", "AFTER LYING DOWN FOR 5 MINUTES", 815, 815, 815]
["CDISCPILOT01", "701", "1015", "STANDING", "STANDING", "STANDING", "65", "", "59", "139", "", "", "mmHg", "", "BEATS/MIN", "mmHg", "", "", "", "", "", "", "", "", "", "WEEK 20", "21-MAY-2014", "21-MAY-2014", "", "21-MAY-2014", "21-MAY-2014", "", "", "AFTER STANDING FOR 1 MINUTE", "AFTER STANDING FOR 1 MINUTE", "AFTER STANDING FOR 1 MINUTE", 816, 816, 816]
["CDISCPILOT01", "701", "1015", "STANDING", "STANDING", "STANDING", "63", "", "58", "136", "", "", "mmHg", "", "BEATS/MIN", "mmHg", "", "", "", "", "", "", "", "", "", "WEEK 20", "21-MAY-2014", "21-MAY-2014", "", "21-MAY-2014", "21-MAY-2014", "", "", "AFTER STANDING FOR 3 MINUTES", "AFTER STANDING FOR 3 MINUTES", "AFTER STANDING FOR 3 MINUTES", 817, 817, 817]
["CDISCPILOT01", "701", "1015", "SUPINE", "SUPINE", "SUPINE", "63", "", "55", "129", "97.7", "117.0", "mmHg", "", "BEATS/MIN", "mmHg", "F", "LB", "", "", "", "", "", "", "ORAL CAVITY", "WEEK 24", "18-JUN-2014", "18-JUN-2014", "", "18-JUN-2014", "18-JUN-2014", "18-JUN-2014", "18-JUN-2014", "AFTER LYING DOWN FOR 5 MINUTES", "AFTER LYING DOWN FOR 5 MINUTES", "AFTER LYING DOWN FOR 5 MINUTES", 815, 815, 815]
["CDISCPILOT01", "701", "1015", "STANDING", "STANDING", "STANDING", "57", "", "57", "131", "", "", "mmHg", "", "BEATS/MIN", "mmHg", "", "", "", "", "", "", "", "", "", "WEEK 24", "18-JUN-2014", "18-JUN-2014", "", "18-JUN-2014", "18-JUN-2014", "", "", "AFTER STANDING FOR 1 MINUTE", "AFTER STANDING FOR 1 MINUTE", "AFTER STANDING FOR 1 MINUTE", 816, 816, 816]
["CDISCPILOT01", "701", "1015", "STANDING", "STANDING", "STANDING", "71", "", "56", "137", "", "", "mmHg", "", "BEATS/MIN", "mmHg", "", "", "", "", "", "", "", "", "", "WEEK 24", "18-JUN-2014", "18-JUN-2014", "", "18-JUN-2014", "18-JUN-2014", "", "", "AFTER STANDING FOR 3 MINUTES", "AFTER STANDING FOR 3 MINUTES", "AFTER STANDING FOR 3 MINUTES", 817, 817, 817]
["CDISCPILOT01", "701", "1015", "SUPINE", "SUPINE", "SUPINE", "61", "", "60", "127", "97.2", "118.0", "mmHg", "", "BEATS/MIN", "mmHg", "F", "LB", "", "", "", "", "", "", "ORAL CAVITY", "WEEK 26", "02-JUL-2014", "02-JUL-2014", "", "02-JUL-2014", "02-JUL-2014", "02-JUL-2014", "02-JUL-2014", "AFTER LYING DOWN FOR 5 MINUTES", "AFTER LYING DOWN FOR 5 MINUTES", "AFTER LYING DOWN FOR 5 MINUTES", 815, 815, 815]
["CDISCPILOT01", "701", "1015", "STANDING", "STANDING", "STANDING", "59", "", "61", "128", "", "", "mmHg", "", "BEATS/MIN", "mmHg", "", "", "", "", "", "", "", "", "", "WEEK 26", "02-JUL-2014", "02-JUL-2014", "", "02-JUL-2014", "02-JUL-2014", "", "", "AFTER STANDING FOR 1 MINUTE", "AFTER STANDING FOR 1 MINUTE", "AFTER STANDING FOR 1 MINUTE", 816, 816, 816]
["CDISCPILOT01", "701", "1015", "STANDING", "STANDING", "STANDING", "55", "", "59", "129", "", "", "mmHg", "", "BEATS/MIN", "mmHg", "", "", "", "", "", "", "", "", "", "WEEK 26", "02-JUL-2014", "02-JUL-2014", "", "02-JUL-2014", "02-JUL-2014", "", "", "AFTER STANDING FOR 3 MINUTES", "AFTER STANDING FOR 3 MINUTES", "AFTER STANDING FOR 3 MINUTES", 817, 817, 817]
["CDISCPILOT01", "701", "1023", "SUPINE", "SUPINE", "SUPINE", "86", "64.0", "65", "130", "097.8", "173.0", "mmHg", "IN", "BEATS/MIN", "mmHg", "F", "LB", "", "", "", "", "", "", "ORAL CAVITY", "SCREENING 1", "22-JUL-2012", "22-JUL-2012", "22-JUL-2012", "22-JUL-2012", "22-JUL-2012", "22-JUL-2012", "22-JUL-2012", "AFTER LYING DOWN FOR 5 MINUTES", "AFTER LYING DOWN FOR 5 MINUTES", "AFTER LYING DOWN FOR 5 MINUTES", 815, 815, 815]
["CDISCPILOT01", "701", "1023", "STANDING", "STANDING", "STANDING", "89", "", "78", "132", "", "", "mmHg", "", "BEATS/MIN", "mmHg", "", "", "", "", "", "", "", "", "", "SCREENING 1", "22-JUL-2012", "22-JUL-2012", "", "22-JUL-2012", "22-JUL-2012", "", "", "AFTER STANDING FOR 1 MINUTE", "AFTER STANDING FOR 1 MINUTE", "AFTER STANDING FOR 1 MINUTE", 816, 816, 816]
["CDISCPILOT01", "701", "1023", "STANDING", "STANDING", "STANDING", "90", "", "74", "140", "", "", "mmHg", "", "BEATS/MIN", "mmHg", "", "", "", "", "", "", "", "", "", "SCREENING 1", "22-JUL-2012", "22-JUL-2012", "", "22-JUL-2012", "22-JUL-2012", "", "", "AFTER STANDING FOR 3 MINUTES", "AFTER STANDING FOR 3 MINUTES", "AFTER STANDING FOR 3 MINUTES", 817, 817, 817]
["CDISCPILOT01", "701", "1023", "SUPINE", "SUPINE", "SUPINE", "77", "", "79", "131", "097.8", "", "mmHg", "", "BEATS/MIN", "mmHg", "F", "", "", "", "", "", "", "", "ORAL CAVITY", "SCREENING 2", "03-AUG-2012", "03-AUG-2012", "", "03-AUG-2012", "03-AUG-2012", "03-AUG-2012", "", "AFTER LYING DOWN FOR 5 MINUTES", "AFTER LYING DOWN FOR 5 MINUTES", "AFTER LYING DOWN FOR 5 MINUTES", 815, 815, 815]
["CDISCPILOT01", "701", "1023", "STANDING", "STANDING", "STANDING", "79", "", "91", "129", "", "", "mmHg", "", "BEATS/MIN", "mmHg", "", "", "", "", "", "", "", "", "", "SCREENING 2", "03-AUG-2012", "03-AUG-2012", "", "03-AUG-2012", "03-AUG-2012", "", "", "AFTER STANDING FOR 1 MINUTE", "AFTER STANDING FOR 1 MINUTE", "AFTER STANDING FOR 1 MINUTE", 816, 816, 816]
["CDISCPILOT01", "701", "1023", "STANDING", "STANDING", "STANDING", "85", "", "92", "138", "", "", "mmHg", "", "BEATS/MIN", "mmHg", "", "", "", "", "", "", "", "", "", "SCREENING 2", "03-AUG-2012", "03-AUG-2012", "", "03-AUG-2012", "03-AUG-2012", "", "", "AFTER STANDING FOR 3 MINUTES", "AFTER STANDING FOR 3 MINUTES", "AFTER STANDING FOR 3 MINUTES", 817, 817, 817]
["CDISCPILOT01", "701", "1023", "SUPINE", "SUPINE", "SUPINE", "84", "", "68", "130", "097.3", "177.0", "mmHg", "", "BEATS/MIN", "mmHg", "F", "LB", "", "", "", "", "", "", "ORAL CAVITY", "BASELINE", "05-AUG-2012", "05-AUG-2012", "", "05-AUG-2012", "05-AUG-2012", "05-AUG-2012", "05-AUG-2012", "AFTER LYING DOWN FOR 5 MINUTES", "AFTER LYING DOWN FOR 5 MINUTES", "AFTER LYING DOWN FOR 5 MINUTES", 815, 815, 815]
["CDISCPILOT01", "701", "1023", "STANDING", "STANDING", "STANDING", "86", "", "80", "132", "", "", "mmHg", "", "BEATS/MIN", "mmHg", "", "", "", "", "", "", "", "", "", "BASELINE", "05-AUG-2012", "05-AUG-2012", "", "05-AUG-2012", "05-AUG-2012", "", "", "AFTER STANDING FOR 1 MINUTE", "AFTER STANDING FOR 1 MINUTE", "AFTER STANDING FOR 1 MINUTE", 816, 816, 816]
["CDISCPILOT01", "701", "1023", "STANDING", "STANDING", "STANDING", "88", "", "76", "132", "", "", "mmHg", "", "BEATS/MIN", "mmHg", "", "", "", "", "", "", "", "", "", "BASELINE", "05-AUG-2012", "05-AUG-2012", "", "05-AUG-2012", "05-AUG-2012", "", "", "AFTER STANDING FOR 3 MINUTES", "AFTER STANDING FOR 3 MINUTES", "AFTER STANDING FOR 3 MINUTES", 817, 817, 817]
["CDISCPILOT01", "701", "1023", "SUPINE", "SUPINE", "SUPINE", "82", "", "71", "133", "097.6", "", "mmHg", "", "BEATS/MIN", "mmHg", "F", "", "", "", "", "", "", "", "ORAL CAVITY", "AMBUL ECG PLACEMENT", "26-AUG-2012", "26-AUG-2012", "", "26-AUG-2012", "26-AUG-2012", "26-AUG-2012", "", "AFTER LYING DOWN FOR 5 MINUTES", "AFTER LYING DOWN FOR 5 MINUTES", "AFTER LYING DOWN FOR 5 MINUTES", 815, 815, 815]
["CDISCPILOT01", "701", "1023", "STANDING", "STANDING", "STANDING", "88", "", "79", "130", "", "", "mmHg", "", "BEATS/MIN", "mmHg", "", "", "", "", "", "", "", "", "", "AMBUL ECG PLACEMENT", "26-AUG-2012", "26-AUG-2012", "", "26-AUG-2012", "26-AUG-2012", "", "", "AFTER STANDING FOR 1 MINUTE", "AFTER STANDING FOR 1 MINUTE", "AFTER STANDING FOR 1 MINUTE", 816, 816, 816]
["CDISCPILOT01", "701", "1023", "STANDING", "STANDING", "STANDING", "89", "", "77", "138", "", "", "mmHg", "", "BEATS/MIN", "mmHg", "", "", "", "", "", "", "", "", "", "AMBUL ECG PLACEMENT", "26-AUG-2012", "26-AUG-2012", "", "26-AUG-2012", "26-AUG-2012", "", "", "AFTER STANDING FOR 3 MINUTES", "AFTER STANDING FOR 3 MINUTES", "AFTER STANDING FOR 3 MINUTES", 817, 817, 817]
["CDISCPILOT01", "701", "1023", "SUPINE", "SUPINE", "SUPINE", "88", "", "84", "122", "098.5", "178.0", "mmHg", "", "BEATS/MIN", "mmHg", "F", "LB", "", "", "", "", "", "", "ORAL CAVITY", "WEEK 2", "27-AUG-2012", "27-AUG-2012", "", "27-AUG-2012", "27-AUG-2012", "27-AUG-2012", "27-AUG-2012", "AFTER LYING DOWN FOR 5 MINUTES", "AFTER LYING DOWN FOR 5 MINUTES", "AFTER LYING DOWN FOR 5 MINUTES", 815, 815, 815]
["CDISCPILOT01", "701", "1023", "STANDING", "STANDING", "STANDING", "86", "", "92", "130", "", "", "mmHg", "", "BEATS/MIN", "mmHg", "", "", "", "", "", "", "", "", "", "WEEK 2", "27-AUG-2012", "27-AUG-2012", "", "27-AUG-2012", "27-AUG-2012", "", "", "AFTER STANDING FOR 1 MINUTE", "AFTER STANDING FOR 1 MINUTE", "AFTER STANDING FOR 1 MINUTE", 816, 816, 816]
["CDISCPILOT01", "701", "1023", "STANDING", "STANDING", "STANDING", "90", "", "94", "138", "", "", "mmHg", "", "BEATS/MIN", "mmHg", "", "", "", "", "", "", "", "", "", "WEEK 2", "27-AUG-2012", "27-AUG-2012", "", "27-AUG-2012", "27-AUG-2012", "", "", "AFTER STANDING FOR 3 MINUTES", "AFTER STANDING FOR 3 MINUTES", "AFTER STANDING FOR 3 MINUTES", 817, 817, 817]
["CDISCPILOT01", "701", "1023", "SUPINE", "SUPINE", "SUPINE", "86", "", "64", "130", "097.2", "177.0", "mmHg", "", "BEATS/MIN", "mmHg", "F", "LB", "", "", "", "", "", "", "ORAL CAVITY", "WEEK 4", "02-SEP-2012", "02-SEP-2012", "", "02-SEP-2012", "02-SEP-2012", "02-SEP-2012", "02-SEP-2012", "AFTER LYING DOWN FOR 5 MINUTES", "AFTER LYING DOWN FOR 5 MINUTES", "AFTER LYING DOWN FOR 5 MINUTES", 815, 815, 815]
["CDISCPILOT01", "701", "1023", "STANDING", "STANDING", "STANDING", "88", "", "76", "134", "", "", "mmHg", "", "BEATS/MIN", "mmHg", "", "", "", "", "", "", "", "", "", "WEEK 4", "02-SEP-2012", "02-SEP-2012", "", "02-SEP-2012", "02-SEP-2012", "", "", "AFTER STANDING FOR 1 MINUTE", "AFTER STANDING FOR 1 MINUTE", "AFTER STANDING FOR 1 MINUTE", 816, 816, 816]
["CDISCPILOT01", "701", "1023", "STANDING", "STANDING", "STANDING", "92", "", "70", "136", "", "", "mmHg", "", "BEATS/MIN", "mmHg", "", "", "", "", "", "", "", "", "", "WEEK 4", "02-SEP-2012", "02-SEP-2012", "", "02-SEP-2012", "02-SEP-2012", "", "", "AFTER STANDING FOR 3 MINUTES", "AFTER STANDING FOR 3 MINUTES", "AFTER STANDING FOR 3 MINUTES", 817, 817, 817]
["CDISCPILOT01", "701", "1023", "SUPINE", "SUPINE", "SUPINE", "89", "", "72", "125", "97.8", "", "mmHg", "", "BEATS/MIN", "mmHg", "F", "", "", "", "", "", "", "", "ORAL CAVITY", "RETRIEVAL", "18-FEB-2013", "18-FEB-2013", "", "18-FEB-2013", "18-FEB-2013", "18-FEB-2013", "", "AFTER LYING DOWN FOR 5 MINUTES", "AFTER LYING DOWN FOR 5 MINUTES", "AFTER LYING DOWN FOR 5 MINUTES", 815, 815, 815]
["CDISCPILOT01", "701", "1023", "STANDING", "STANDING", "STANDING", "86", "", "84", "110", "", "", "mmHg", "", "BEATS/MIN", "mmHg", "", "", "", "", "", "", "", "", "", "RETRIEVAL", "18-FEB-2013", "18-FEB-2013", "", "18-FEB-2013", "18-FEB-2013", "", "", "AFTER STANDING FOR 1 MINUTE", "AFTER STANDING FOR 1 MINUTE", "AFTER STANDING FOR 1 MINUTE", 816, 816, 816]
["CDISCPILOT01", "701", "1023", "STANDING", "STANDING", "STANDING", "84", "", "76", "130", "", "", "mmHg", "", "BEATS/MIN", "mmHg", "", "", "", "", "", "", "", "", "", "RETRIEVAL", "18-FEB-2013", "18-FEB-2013", "", "18-FEB-2013", "18-FEB-2013", "", "", "AFTER STANDING FOR 3 MINUTES", "AFTER STANDING FOR 3 MINUTES", "AFTER STANDING FOR 3 MINUTES", 817, 817, 817]
["CDISCPILOT01", "701", "1028", "SUPINE", "SUPINE", "SUPINE", "76", "70.0", "54", "143", "98.5", "218.0", "mmHg", "IN", "BEATS/MIN", "mmHg", "F", "LB", "", "", "", "", "", "", "ORAL CAVITY", "SCREENING 1", "11-JUL-2013", "11-JUL-2013", "11-JUL-2013", "11-JUL-2013", "11-JUL-2013", "11-JUL-2013", "11-JUL-2013", "AFTER LYING DOWN FOR 5 MINUTES", "AFTER LYING DOWN FOR 5 MINUTES", "AFTER LYING DOWN FOR 5 MINUTES", 815, 815, 815]
["CDISCPILOT01", "701", "1028", "STANDING", "STANDING", "STANDING", "70", "", "59", "140", "", "", "mmHg", "", "BEATS/MIN", "mmHg", "", "", "", "", "", "", "", "", "", "SCREENING 1", "11-JUL-2013", "11-JUL-2013", "", "11-JUL-2013", "11-JUL-2013", "", "", "AFTER STANDING FOR 1 MINUTE", "AFTER STANDING FOR 1 MINUTE", "AFTER STANDING FOR 1 MINUTE", 816, 816, 816]
["CDISCPILOT01", "701", "1028", "STANDING", "STANDING", "STANDING", "73", "", "59", "132", "", "", "mmHg", "", "BEATS/MIN", "mmHg", "", "", "", "", "", "", "", "", "", "SCREENING 1", "11-JUL-2013", "11-JUL-2013", "", "11-JUL-2013", "11-JUL-2013", "", "", "AFTER STANDING FOR 3 MINUTES", "AFTER STANDING FOR 3 MINUTES", "AFTER STANDING FOR 3 MINUTES", 817, 817, 817]
["CDISCPILOT01", "701", "1028", "SUPINE", "SUPINE", "SUPINE", "76", "", "68", "122", "96.7", "", "mmHg", "", "BEATS/MIN", "mmHg", "F", "", "", "", "", "", "", "", "ORAL CAVITY", "SCREENING 2", "17-JUL-2013", "17-JUL-2013", "", "17-JUL-2013", "17-JUL-2013", "17-JUL-2013", "", "AFTER LYING DOWN FOR 5 MINUTES", "AFTER LYING DOWN FOR 5 MINUTES", "AFTER LYING DOWN FOR 5 MINUTES", 815, 815, 815]
["CDISCPILOT01", "701", "1028", "STANDING", "STANDING", "STANDING", "76", "", "72", "142", "", "", "mmHg", "", "BEATS/MIN", "mmHg", "", "", "", "", "", "", "", "", "", "SCREENING 2", "17-JUL-2013", "17-JUL-2013", "", "17-JUL-2013", "17-JUL-2013", "", "", "AFTER STANDING FOR 1 MINUTE", "AFTER STANDING FOR 1 MINUTE", "AFTER STANDING FOR 1 MINUTE", 816, 816, 816]
["CDISCPILOT01", "701", "1028", "STANDING", "STANDING", "STANDING", "85", "", "74", "132", "", "", "mmHg", "", "BEATS/MIN", "mmHg", "", "", "", "", "", "", "", "", "", "SCREENING 2", "17-JUL-2013", "17-JUL-2013", "", "17-JUL-2013", "17-JUL-2013", "", "", "AFTER STANDING FOR 3 MINUTES", "AFTER STANDING FOR 3 MINUTES", "AFTER STANDING FOR 3 MINUTES", 817, 817, 817]
["CDISCPILOT01", "701", "1028", "SUPINE", "SUPINE", "SUPINE", "85", "", "62", "138", "98.6", "219.0", "mmHg", "", "BEATS/MIN", "mmHg", "F", "LB", "", "", "", "", "", "", "ORAL CAVITY", "BASELINE", "19-JUL-2013", "19-JUL-2013", "", "19-JUL-2013", "19-JUL-2013", "19-JUL-2013", "19-JUL-2013", "AFTER LYING DOWN FOR 5 MINUTES", "AFTER LYING DOWN FOR 5 MINUTES", "AFTER LYING DOWN FOR 5 MINUTES", 815, 815, 815]
["CDISCPILOT01", "701", "1028", "STANDING", "STANDING", "STANDING", "76", "", "62", "145", "", "", "mmHg", "", "BEATS/MIN", "mmHg", "", "", "", "", "", "", "", "", "", "BASELINE", "19-JUL-2013", "19-JUL-2013", "", "19-JUL-2013", "19-JUL-2013", "", "", "AFTER STANDING FOR 1 MINUTE", "AFTER STANDING FOR 1 MINUTE", "AFTER STANDING FOR 1 MINUTE", 816, 816, 816]
["CDISCPILOT01", "701", "1028", "STANDING", "STANDING", "STANDING", "75", "", "66", "139", "", "", "mmHg", "", "BEATS/MIN", "mmHg", "", "", "", "", "", "", "", "", "", "BASELINE", "19-JUL-2013", "19-JUL-2013", "", "19-JUL-2013", "19-JUL-2013", "", "", "AFTER STANDING FOR 3 MINUTES", "AFTER STANDING FOR 3 MINUTES", "AFTER STANDING FOR 3 MINUTES", 817, 817, 817]
["CDISCPILOT01", "701", "1028", "SUPINE", "SUPINE", "SUPINE", "82", "", "60", "138", "98.2", "", "mmHg", "", "BEATS/MIN", "mmHg", "F", "", "", "", "", "", "", "", "ORAL CAVITY", "AMBUL ECG PLACEMENT", "31-JUL-2013", "31-JUL-2013", "", "31-JUL-2013", "31-JUL-2013", "31-JUL-2013", "", "AFTER LYING DOWN FOR 5 MINUTES", "AFTER LYING DOWN FOR 5 MINUTES", "AFTER LYING DOWN FOR 5 MINUTES", 815, 815, 815]
["CDISCPILOT01", "701", "1028", "STANDING", "STANDING", "STANDING", "82", "", "66", "137", "", "", "mmHg", "", "BEATS/MIN", "mmHg", "", "", "", "", "", "", "", "", "", "AMBUL ECG PLACEMENT", "31-JUL-2013", "31-JUL-2013", "", "31-JUL-2013", "31-JUL-2013", "", "", "AFTER STANDING FOR 1 MINUTE", "AFTER STANDING FOR 1 MINUTE", "AFTER STANDING FOR 1 MINUTE", 816, 816, 816]
["CDISCPILOT01", "701", "1028", "STANDING", "STANDING", "STANDING", "84", "", "65", "145", "", "", "mmHg", "", "BEATS/MIN", "mmHg", "", "", "", "", "", "", "", "", "", "AMBUL ECG PLACEMENT", "31-JUL-2013", "31-JUL-2013", "", "31-JUL-2013", "31-JUL-2013", "", "", "AFTER STANDING FOR 3 MINUTES", "AFTER STANDING FOR 3 MINUTES", "AFTER STANDING FOR 3 MINUTES", 817, 817, 817]
["CDISCPILOT01", "701", "1028", "SUPINE", "SUPINE", "SUPINE", "78", "", "65", "134", "99.0", "219.0", "mmHg", "", "BEATS/MIN", "mmHg", "F", "LB", "", "", "", "", "", "", "ORAL CAVITY", "WEEK 2", "01-AUG-2013", "01-AUG-2013", "", "01-AUG-2013", "01-AUG-2013", "01-AUG-2013", "01-AUG-2013", "AFTER LYING DOWN FOR 5 MINUTES", "AFTER LYING DOWN FOR 5 MINUTES", "AFTER LYING DOWN FOR 5 MINUTES", 815, 815, 815]
["CDISCPILOT01", "701", "1028", "STANDING", "STANDING", "STANDING", "80", "", "77", "138", "", "", "mmHg", "", "BEATS/MIN", "mmHg", "", "", "", "", "", "", "", "", "", "WEEK 2", "01-AUG-2013", "01-AUG-2013", "", "01-AUG-2013", "01-AUG-2013", "", "", "AFTER STANDING FOR 1 MINUTE", "AFTER STANDING FOR 1 MINUTE", "AFTER STANDING FOR 1 MINUTE", 816, 816, 816]
["CDISCPILOT01", "701", "1028", "STANDING", "STANDING", "STANDING", "80", "", "72", "131", "", "", "mmHg", "", "BEATS/MIN", "mmHg", "", "", "", "", "", "", "", "", "", "WEEK 2", "01-AUG-2013", "01-AUG-2013", "", "01-AUG-2013", "01-AUG-2013", "", "", "AFTER STANDING FOR 3 MINUTES", "AFTER STANDING FOR 3 MINUTES", "AFTER STANDING FOR 3 MINUTES", 817, 817, 817]
["CDISCPILOT01", "701", "1028", "SUPINE", "SUPINE", "SUPINE", "69", "", "68", "130", "98.5", "218.0", "mmHg", "", "BEATS/MIN", "mmHg", "F", "LB", "", "", "", "", "", "", "ORAL CAVITY", "WEEK 4", "14-AUG-2013", "14-AUG-2013", "", "14-AUG-2013", "14-AUG-2013", "14-AUG-2013", "14-AUG-2013", "AFTER LYING DOWN FOR 5 MINUTES", "AFTER LYING DOWN FOR 5 MINUTES", "AFTER LYING DOWN FOR 5 MINUTES", 815, 815, 815]
["CDISCPILOT01", "701", "1028", "STANDING", "STANDING", "STANDING", "72", "", "81", "130", "", "", "mmHg", "", "BEATS/MIN", "mmHg", "", "", "", "", "", "", "", "", "", "WEEK 4", "14-AUG-2013", "14-AUG-2013", "", "14-AUG-2013", "14-AUG-2013", "", "", "AFTER STANDING FOR 1 MINUTE", "AFTER STANDING FOR 1 MINUTE", "AFTER STANDING FOR 1 MINUTE", 816, 816, 816]
["CDISCPILOT01", "701", "1028", "STANDING", "STANDING", "STANDING", "68", "", "76", "138", "", "", "mmHg", "", "BEATS/MIN", "mmHg", "", "", "", "", "", "", "", "", "", "WEEK 4", "14-AUG-2013", "14-AUG-2013", "", "14-AUG-2013", "14-AUG-2013", "", "", "AFTER STANDING FOR 3 MINUTES", "AFTER STANDING FOR 3 MINUTES", "AFTER STANDING FOR 3 MINUTES", 817, 817, 817]
["CDISCPILOT01", "701", "1028", "SUPINE", "SUPINE", "SUPINE", "76", "", "63", "138", "98.2", "", "mmHg", "", "BEATS/MIN", "mmHg", "F", "", "", "", "", "", "", "", "ORAL CAVITY", "AMBUL ECG REMOVAL", "16-AUG-2013", "16-AUG-2013", "", "16-AUG-2013", "16-AUG-2013", "16-AUG-2013", "", "AFTER LYING DOWN FOR 5 MINUTES", "AFTER LYING DOWN FOR 5 MINUTES", "AFTER LYING DOWN FOR 5 MINUTES", 815, 815, 815]
["CDISCPILOT01", "701", "1028", "STANDING", "STANDING", "STANDING", "85", "", "68", "138", "", "", "mmHg", "", "BEATS/MIN", "mmHg", "", "", "", "", "", "", "", "", "", "AMBUL ECG REMOVAL", "16-AUG-2013", "16-AUG-2013", "", "16-AUG-2013", "16-AUG-2013", "", "", "AFTER STANDING FOR 1 MINUTE", "AFTER STANDING FOR 1 MINUTE", "AFTER STANDING FOR 1 MINUTE", 816, 816, 816]
["CDISCPILOT01", "701", "1028", "STANDING", "STANDING", "STANDING", "81", "", "70", "146", "", "", "mmHg", "", "BEATS/MIN", "mmHg", "", "", "", "", "", "", "", "", "", "AMBUL ECG REMOVAL", "16-AUG-2013", "16-AUG-2013", "", "16-AUG-2013", "16-AUG-2013", "", "", "AFTER STANDING FOR 3 MINUTES", "AFTER STANDING FOR 3 MINUTES", "AFTER STANDING FOR 3 MINUTES", 817, 817, 817]
["CDISCPILOT01", "701", "1028", "SUPINE", "SUPINE", "SUPINE", "69", "", "56", "131", "97.7", "217.0", "mmHg", "", "BEATS/MIN", "mmHg", "F", "LB", "", "", "", "", "", "", "ORAL CAVITY", "WEEK 6", "29-AUG-2013", "29-AUG-2013", "", "29-AUG-2013", "29-AUG-2013", "29-AUG-2013", "29-AUG-2013", "AFTER LYING DOWN FOR 5 MINUTES", "AFTER LYING DOWN FOR 5 MINUTES", "AFTER LYING DOWN FOR 5 MINUTES", 815, 815, 815]
["CDISCPILOT01", "701", "1028", "STANDING", "STANDING", "STANDING", "77", "", "60", "131", "", "", "mmHg", "", "BEATS/MIN", "mmHg", "", "", "", "", "", "", "", "", "", "WEEK 6", "29-AUG-2013", "29-AUG-2013", "", "29-AUG-2013", "29-AUG-2013", "", "", "AFTER STANDING FOR 1 MINUTE", "AFTER STANDING FOR 1 MINUTE", "AFTER STANDING FOR 1 MINUTE", 816, 816, 816]
["CDISCPILOT01", "701", "1028", "STANDING", "STANDING", "STANDING", "76", "", "62", "132", "", "", "mmHg", "", "BEATS/MIN", "mmHg", "", "", "", "", "", "", "", "", "", "WEEK 6", "29-AUG-2013", "29-AUG-2013", "", "29-AUG-2013", "29-AUG-2013", "", "", "AFTER STANDING FOR 3 MINUTES", "AFTER STANDING FOR 3 MINUTES", "AFTER STANDING FOR 3 MINUTES", 817, 817, 817]
["CDISCPILOT01", "701", "1028", "SUPINE", "SUPINE", "SUPINE", "76", "", "67", "137", "98.1", "219.0", "mmHg", "", "BEATS/MIN", "mmHg", "F", "LB", "", "", "", "", "", "", "ORAL CAVITY", "WEEK 8", "10-SEP-2013", "10-SEP-2013", "", "10-SEP-2013", "10-SEP-2013", "10-SEP-2013", "10-SEP-2013", "AFTER LYING DOWN FOR 5 MINUTES", "AFTER LYING DOWN FOR 5 MINUTES", "AFTER LYING DOWN FOR 5 MINUTES", 815, 815, 815]
["CDISCPILOT01", "701", "1028", "STANDING", "STANDING", "STANDING", "81", "", "76", "146", "", "", "mmHg", "", "BEATS/MIN", "mmHg", "", "", "", "", "", "", "", "", "", "WEEK 8", "10-SEP-2013", "10-SEP-2013", "", "10-SEP-2013", "10-SEP-2013", "", "", "AFTER STANDING FOR 1 MINUTE", "AFTER STANDING FOR 1 MINUTE", "AFTER STANDING FOR 1 MINUTE", 816, 816, 816]
["CDISCPILOT01", "701", "1028", "STANDING", "STANDING", "STANDING", "84", "", "81", "130", "", "", "mmHg", "", "BEATS/MIN", "mmHg", "", "", "", "", "", "", "", "", "", "WEEK 8", "10-SEP-2013", "10-SEP-2013", "", "10-SEP-2013", "10-SEP-2013", "", "", "AFTER STANDING FOR 3 MINUTES", "AFTER STANDING FOR 3 MINUTES", "AFTER STANDING FOR 3 MINUTES", 817, 817, 817]
["CDISCPILOT01", "701", "1028", "SUPINE", "SUPINE", "SUPINE", "74", "", "61", "128", "98.3", "218.0", "mmHg", "", "BEATS/MIN", "mmHg", "F", "LB", "", "", "", "", "", "", "ORAL CAVITY", "WEEK 12", "09-OCT-2013", "09-OCT-2013", "", "09-OCT-2013", "09-OCT-2013", "09-OCT-2013", "09-OCT-2013", "AFTER LYING DOWN FOR 5 MINUTES", "AFTER LYING DOWN FOR 5 MINUTES", "AFTER LYING DOWN FOR 5 MINUTES", 815, 815, 815]
["CDISCPILOT01", "701", "1028", "STANDING", "STANDING", "STANDING", "83", "", "64", "137", "", "", "mmHg", "", "BEATS/MIN", "mmHg", "", "", "", "", "", "", "", "", "", "WEEK 12", "09-OCT-2013", "09-OCT-2013", "", "09-OCT-2013", "09-OCT-2013", "", "", "AFTER STANDING FOR 1 MINUTE", "AFTER STANDING FOR 1 MINUTE", "AFTER STANDING FOR 1 MINUTE", 816, 816, 816]
["CDISCPILOT01", "701", "1028", "STANDING", "STANDING", "STANDING", "80", "", "70", "138", "", "", "mmHg", "", "BEATS/MIN", "mmHg", "", "", "", "", "", "", "", "", "", "WEEK 12", "09-OCT-2013", "09-OCT-2013", "", "09-OCT-2013", "09-OCT-2013", "", "", "AFTER STANDING FOR 3 MINUTES", "AFTER STANDING FOR 3 MINUTES", "AFTER STANDING FOR 3 MINUTES", 817, 817, 817]
["CDISCPILOT01", "701", "1028", "SUPINE", "SUPINE", "SUPINE", "75", "", "60", "122", "97.8", "220.0", "mmHg", "", "BEATS/MIN", "mmHg", "F", "LB", "", "", "", "", "", "", "ORAL CAVITY", "WEEK 16", "06-NOV-2013", "06-NOV-2013", "", "06-NOV-2013", "06-NOV-2013", "06-NOV-2013", "06-NOV-2013", "AFTER LYING DOWN FOR 5 MINUTES", "AFTER LYING DOWN FOR 5 MINUTES", "AFTER LYING DOWN FOR 5 MINUTES", 815, 815, 815]
["CDISCPILOT01", "701", "1028", "STANDING", "STANDING", "STANDING", "76", "", "70", "130", "", "", "mmHg", "", "BEATS/MIN", "mmHg", "", "", "", "", "", "", "", "", "", "WEEK 16", "06-NOV-2013", "06-NOV-2013", "", "06-NOV-2013", "06-NOV-2013", "", "", "AFTER STANDING FOR 1 MINUTE", "AFTER STANDING FOR 1 MINUTE", "AFTER STANDING FOR 1 MINUTE", 816, 816, 816]
["CDISCPILOT01", "701", "1028", "STANDING", "STANDING", "STANDING", "78", "", "69", "132", "", "", "mmHg", "", "BEATS/MIN", "mmHg", "", "", "", "", "", "", "", "", "", "WEEK 16", "06-NOV-2013", "06-NOV-2013", "", "06-NOV-2013", "06-NOV-2013", "", "", "AFTER STANDING FOR 3 MINUTES", "AFTER STANDING FOR 3 MINUTES", "AFTER STANDING FOR 3 MINUTES", 817, 817, 817]
["CDISCPILOT01", "701", "1028", "SUPINE", "SUPINE", "SUPINE", "79", "", "60", "129", "97.6", "220.0", "mmHg", "", "BEATS/MIN", "mmHg", "F", "LB", "", "", "", "", "", "", "ORAL CAVITY", "WEEK 20", "04-DEC-2013", "04-DEC-2013", "", "04-DEC-2013", "04-DEC-2013", "04-DEC-2013", "04-DEC-2013", "AFTER LYING DOWN FOR 5 MINUTES", "AFTER LYING DOWN FOR 5 MINUTES", "AFTER LYING DOWN FOR 5 MINUTES", 815, 815, 815]
["CDISCPILOT01", "701", "1028", "STANDING", "STANDING", "STANDING", "76", "", "67", "123", "", "", "mmHg", "", "BEATS/MIN", "mmHg", "", "", "", "", "", "", "", "", "", "WEEK 20", "04-DEC-2013", "04-DEC-2013", "", "04-DEC-2013", "04-DEC-2013", "", "", "AFTER STANDING FOR 1 MINUTE", "AFTER STANDING FOR 1 MINUTE", "AFTER STANDING FOR 1 MINUTE", 816, 816, 816]
["CDISCPILOT01", "701", "1028", "STANDING", "STANDING", "STANDING", "77", "", "69", "131", "", "", "mmHg", "", "BEATS/MIN", "mmHg", "", "", "", "", "", "", "", "", "", "WEEK 20", "04-DEC-2013", "04-DEC-2013", "", "04-DEC-2013", "04-DEC-2013", "", "", "AFTER STANDING FOR 3 MINUTES", "AFTER STANDING FOR 3 MINUTES", "AFTER STANDING FOR 3 MINUTES", 817, 817, 817]
["CDISCPILOT01", "701", "1028", "SUPINE", "SUPINE", "SUPINE", "73", "", "62", "130", "98.8", "219.0", "mmHg", "", "BEATS/MIN", "mmHg", "F", "LB", "", "", "", "", "", "", "ORAL CAVITY", "WEEK 24", "06-JAN-2014", "06-JAN-2014", "", "06-JAN-2014", "06-JAN-2014", "06-JAN-2014", "06-JAN-2014", "AFTER LYING DOWN FOR 5 MINUTES", "AFTER LYING DOWN FOR 5 MINUTES", "AFTER LYING DOWN FOR 5 MINUTES", 815, 815, 815]
["CDISCPILOT01", "701", "1028", "STANDING", "STANDING", "STANDING", "72", "", "72", "133", "", "", "mmHg", "", "BEATS/MIN", "mmHg", "", "", "", "", "", "", "", "", "", "WEEK 24", "06-JAN-2014", "06-JAN-2014", "", "06-JAN-2014", "06-JAN-2014", "", "", "AFTER STANDING FOR 1 MINUTE", "AFTER STANDING FOR 1 MINUTE", "AFTER STANDING FOR 1 MINUTE", 816, 816, 816]
["CDISCPILOT01", "701", "1028", "STANDING", "STANDING", "STANDING", "77", "", "73", "131", "", "", "mmHg", "", "BEATS/MIN", "mmHg", "", "", "", "", "", "", "", "", "", "WEEK 24", "06-JAN-2014", "06-JAN-2014", "", "06-JAN-2014", "06-JAN-2014", "", "", "AFTER STANDING FOR 3 MINUTES", "AFTER STANDING FOR 3 MINUTES", "AFTER STANDING FOR 3 MINUTES", 817, 817, 817]
["CDISCPILOT01", "701", "1028", "SUPINE", "SUPINE", "SUPINE", "70", "", "53", "131", "97.8", "220.0", "mmHg", "", "BEATS/MIN", "mmHg", "F", "LB", "", "", "", "", "", "", "ORAL CAVITY", "WEEK 26", "14-JAN-2014", "14-JAN-2014", "", "14-JAN-2014", "14-JAN-2014", "14-JAN-2014", "14-JAN-2014", "AFTER LYING DOWN FOR 5 MINUTES", "AFTER LYING DOWN FOR 5 MINUTES", "AFTER LYING DOWN FOR 5 MINUTES", 815, 815, 815]
["CDISCPILOT01", "701", "1028", "STANDING", "STANDING", "STANDING", "79", "", "58", "118", "", "", "mmHg", "", "BEATS/MIN", "mmHg", "", "", "", "", "", "", "", "", "", "WEEK 26", "14-JAN-2014", "14-JAN-2014", "", "14-JAN-2014", "14-JAN-2014", "", "", "AFTER STANDING FOR 1 MINUTE", "AFTER STANDING FOR 1 MINUTE", "AFTER STANDING FOR 1 MINUTE", 816, 816, 816]
["CDISCPILOT01", "701", "1028", "STANDING", "STANDING", "STANDING", "77", "", "59", "131", "", "", "mmHg", "", "BEATS/MIN", "mmHg", "", "", "", "", "", "", "", "", "", "WEEK 26", "14-JAN-2014", "14-JAN-2014", "", "14-JAN-2014", "14-JAN-2014", "", "", "AFTER STANDING FOR 3 MINUTES", "AFTER STANDING FOR 3 MINUTES", "AFTER STANDING FOR 3 MINUTES", 817, 817, 817]
["CDISCPILOT01", "701", "1033", "SUPINE", "SUPINE", "SUPINE", "82", "69.0", "59", "128", "98.7", "195.0", "mmHg", "IN", "BEATS/MIN", "mmHg", "F", "LB", "", "", "", "", "", "", "ORAL CAVITY", "SCREENING 1", "10-MAR-2014", "10-MAR-2014", "10-MAR-2014", "10-MAR-2014", "10-MAR-2014", "10-MAR-2014", "10-MAR-2014", "AFTER LYING DOWN FOR 5 MINUTES", "AFTER LYING DOWN FOR 5 MINUTES", "AFTER LYING DOWN FOR 5 MINUTES", 815, 815, 815]
["CDISCPILOT01", "701", "1033", "STANDING", "STANDING", "STANDING", "67", "", "70", "117", "", "", "mmHg", "", "BEATS/MIN", "mmHg", "", "", "", "", "", "", "", "", "", "SCREENING 1", "10-MAR-2014", "10-MAR-2014", "", "10-MAR-2014", "10-MAR-2014", "", "", "AFTER STANDING FOR 1 MINUTE", "AFTER STANDING FOR 1 MINUTE", "AFTER STANDING FOR 1 MINUTE", 816, 816, 816]
["CDISCPILOT01", "701", "1033", "STANDING", "STANDING", "STANDING", "72", "", "67", "121", "", "", "mmHg", "", "BEATS/MIN", "mmHg", "", "", "", "", "", "", "", "", "", "SCREENING 1", "10-MAR-2014", "10-MAR-2014", "", "10-MAR-2014", "10-MAR-2014", "", "", "AFTER STANDING FOR 3 MINUTES", "AFTER STANDING FOR 3 MINUTES", "AFTER STANDING FOR 3 MINUTES", 817, 817, 817]
["CDISCPILOT01", "701", "1033", "SUPINE", "SUPINE", "SUPINE", "69", "", "67", "115", "98.9", "", "mmHg", "", "BEATS/MIN", "mmHg", "F", "", "", "", "", "", "", "", "ORAL CAVITY", "SCREENING 2", "16-MAR-2014", "16-MAR-2014", "", "16-MAR-2014", "16-MAR-2014", "16-MAR-2014", "", "AFTER LYING DOWN FOR 5 MINUTES", "AFTER LYING DOWN FOR 5 MINUTES", "AFTER LYING DOWN FOR 5 MINUTES", 815, 815, 815]
["CDISCPILOT01", "701", "1033", "STANDING", "STANDING", "STANDING", "60", "", "80", "102", "", "", "mmHg", "", "BEATS/MIN", "mmHg", "", "", "", "", "", "", "", "", "", "SCREENING 2", "16-MAR-2014", "16-MAR-2014", "", "16-MAR-2014", "16-MAR-2014", "", "", "AFTER STANDING FOR 1 MINUTE", "AFTER STANDING FOR 1 MINUTE", "AFTER STANDING FOR 1 MINUTE", 816, 816, 816]
["CDISCPILOT01", "701", "1033", "STANDING", "STANDING", "STANDING", "62", "", "82", "124", "", "", "mmHg", "", "BEATS/MIN", "mmHg", "", "", "", "", "", "", "", "", "", "SCREENING 2", "16-MAR-2014", "16-MAR-2014", "", "16-MAR-2014", "16-MAR-2014", "", "", "AFTER STANDING FOR 3 MINUTES", "AFTER STANDING FOR 3 MINUTES", "AFTER STANDING FOR 3 MINUTES", 817, 817, 817]
["CDISCPILOT01", "701", "1033", "SUPINE", "SUPINE", "SUPINE", "83", "", "55", "136", "98.8", "195.0", "mmHg", "", "BEATS/MIN", "mmHg", "F", "LB", "", "", "", "", "", "", "ORAL CAVITY", "BASELINE", "18-MAR-2014", "18-MAR-2014", "", "18-MAR-2014", "18-MAR-2014", "18-MAR-2014", "18-MAR-2014", "AFTER LYING DOWN FOR 5 MINUTES", "AFTER LYING DOWN FOR 5 MINUTES", "AFTER LYING DOWN FOR 5 MINUTES", 815, 815, 815]
["CDISCPILOT01", "701", "1033", "STANDING", "STANDING", "STANDING", "67", "", "64", "116", "", "", "mmHg", "", "BEATS/MIN", "mmHg", "", "", "", "", "", "", "", "", "", "BASELINE", "18-MAR-2014", "18-MAR-2014", "", "18-MAR-2014", "18-MAR-2014", "", "", "AFTER STANDING FOR 1 MINUTE", "AFTER STANDING FOR 1 MINUTE", "AFTER STANDING FOR 1 MINUTE", 816, 816, 816]
["CDISCPILOT01", "701", "1033", "STANDING", "STANDING", "STANDING", "70", "", "62", "121", "", "", "mmHg", "", "BEATS/MIN", "mmHg", "", "", "", "", "", "", "", "", "", "BASELINE", "18-MAR-2014", "18-MAR-2014", "", "18-MAR-2014", "18-MAR-2014", "", "", "AFTER STANDING FOR 3 MINUTES", "AFTER STANDING FOR 3 MINUTES", "AFTER STANDING FOR 3 MINUTES", 817, 817, 817]
["CDISCPILOT01", "701", "1033", "SUPINE", "SUPINE", "SUPINE", "84", "", "62", "151", "98.0", "", "mmHg", "", "BEATS/MIN", "mmHg", "F", "", "", "", "", "", "", "", "ORAL CAVITY", "AMBUL ECG PLACEMENT", "31-MAR-2014", "31-MAR-2014", "", "31-MAR-2014", "31-MAR-2014", "31-MAR-2014", "", "AFTER LYING DOWN FOR 5 MINUTES", "AFTER LYING DOWN FOR 5 MINUTES", "AFTER LYING DOWN FOR 5 MINUTES", 815, 815, 815]
["CDISCPILOT01", "701", "1033", "STANDING", "STANDING", "STANDING", "81", "", "62", "139", "", "", "mmHg", "", "BEATS/MIN", "mmHg", "", "", "", "", "", "", "", "", "", "AMBUL ECG PLACEMENT", "31-MAR-2014", "31-MAR-2014", "", "31-MAR-2014", "31-MAR-2014", "", "", "AFTER STANDING FOR 1 MINUTE", "AFTER STANDING FOR 1 MINUTE", "AFTER STANDING FOR 1 MINUTE", 816, 816, 816]
["CDISCPILOT01", "701", "1033", "STANDING", "STANDING", "STANDING", "85", "", "60", "139", "", "", "mmHg", "", "BEATS/MIN", "mmHg", "", "", "", "", "", "", "", "", "", "AMBUL ECG PLACEMENT", "31-MAR-2014", "31-MAR-2014", "", "31-MAR-2014", "31-MAR-2014", "", "", "AFTER STANDING FOR 3 MINUTES", "AFTER STANDING FOR 3 MINUTES", "AFTER STANDING FOR 3 MINUTES", 817, 817, 817]
["CDISCPILOT01", "701", "1033", "SUPINE", "SUPINE", "SUPINE", "84", "", "59", "138", "98.1", "197.0", "mmHg", "", "BEATS/MIN", "mmHg", "F", "LB", "", "", "", "", "", "", "ORAL CAVITY", "WEEK 2", "01-APR-2014", "01-APR-2014", "", "01-APR-2014", "01-APR-2014", "01-APR-2014", "01-APR-2014", "AFTER LYING DOWN FOR 5 MINUTES", "AFTER LYING DOWN FOR 5 MINUTES", "AFTER LYING DOWN FOR 5 MINUTES", 815, 815, 815]
["CDISCPILOT01", "701", "1033", "STANDING", "STANDING", "STANDING", "72", "", "62", "118", "", "", "mmHg", "", "BEATS/MIN", "mmHg", "", "", "", "", "", "", "", "", "", "WEEK 2", "01-APR-2014", "01-APR-2014", "", "01-APR-2014", "01-APR-2014", "", "", "AFTER STANDING FOR 1 MINUTE", "AFTER STANDING FOR 1 MINUTE", "AFTER STANDING FOR 1 MINUTE", 816, 816, 816]
["CDISCPILOT01", "701", "1033", "STANDING", "STANDING", "STANDING", "76", "", "62", "130", "", "", "mmHg", "", "BEATS/MIN", "mmHg", "", "", "", "", "", "", "", "", "", "WEEK 2", "01-APR-2014", "01-APR-2014", "", "01-APR-2014", "01-APR-2014", "", "", "AFTER STANDING FOR 3 MINUTES", "AFTER STANDING FOR 3 MINUTES", "AFTER STANDING FOR 3 MINUTES", 817, 817, 817]
["CDISCPILOT01", "701", "1033", "SUPINE", "SUPINE", "SUPINE", "76", "", "54", "130", "98.1", "195.0", "mmHg", "", "BEATS/MIN", "mmHg", "F", "LB", "", "", "", "", "", "", "ORAL CAVITY", "WEEK 4", "14-APR-2014", "14-APR-2014", "", "14-APR-2014", "14-APR-2014", "14-APR-2014", "14-APR-2014", "AFTER LYING DOWN FOR 5 MINUTES", "AFTER LYING DOWN FOR 5 MINUTES", "AFTER LYING DOWN FOR 5 MINUTES", 815, 815, 815]
["CDISCPILOT01", "701", "1033", "STANDING", "STANDING", "STANDING", "67", "", "57", "122", "", "", "mmHg", "", "BEATS/MIN", "mmHg", "", "", "", "", "", "", "", "", "", "WEEK 4", "14-APR-2014", "14-APR-2014", "", "14-APR-2014", "14-APR-2014", "", "", "AFTER STANDING FOR 1 MINUTE", "AFTER STANDING FOR 1 MINUTE", "AFTER STANDING FOR 1 MINUTE", 816, 816, 816]
["CDISCPILOT01", "701", "1033", "STANDING", "STANDING", "STANDING", "67", "", "58", "125", "", "", "mmHg", "", "BEATS/MIN", "mmHg", "", "", "", "", "", "", "", "", "", "WEEK 4", "14-APR-2014", "14-APR-2014", "", "14-APR-2014", "14-APR-2014", "", "", "AFTER STANDING FOR 3 MINUTES", "AFTER STANDING FOR 3 MINUTES", "AFTER STANDING FOR 3 MINUTES", 817, 817, 817]
["CDISCPILOT01", "701", "1033", "SUPINE", "SUPINE", "SUPINE", "79", "", "50", "130", "98.1", "", "mmHg", "", "BEATS/MIN", "mmHg", "F", "", "", "", "", "", "", "", "ORAL CAVITY", "RETRIEVAL", "15-SEP-2014", "15-SEP-2014", "", "15-SEP-2014", "15-SEP-2014", "15-SEP-2014", "", "AFTER LYING DOWN FOR 5 MINUTES", "AFTER LYING DOWN FOR 5 MINUTES", "AFTER LYING DOWN FOR 5 MINUTES", 815, 815, 815]
["CDISCPILOT01", "701", "1033", "STANDING", "STANDING", "STANDING", "71", "", "55", "122", "", "", "mmHg", "", "BEATS/MIN", "mmHg", "", "", "", "", "", "", "", "", "", "RETRIEVAL", "15-SEP-2014", "15-SEP-2014", "", "15-SEP-2014", "15-SEP-2014", "", "", "AFTER STANDING FOR 1 MINUTE", "AFTER STANDING FOR 1 MINUTE", "AFTER STANDING FOR 1 MINUTE", 816, 816, 816]
["CDISCPILOT01", "701", "1033", "STANDING", "STANDING", "STANDING", "60", "", "50", "123", "", "", "mmHg", "", "BEATS/MIN", "mmHg", "", "", "", "", "", "", "", "", "", "RETRIEVAL", "15-SEP-2014", "15-SEP-2014", "", "15-SEP-2014", "15-SEP-2014", "", "", "AFTER STANDING FOR 3 MINUTES", "AFTER STANDING FOR 3 MINUTES", "AFTER STANDING FOR 3 MINUTES", 817, 817, 817]
["CDISCPILOT01", "701", "1034", "SUPINE", "SUPINE", "SUPINE", "58", "61.0", "69", "160", "97.2", "140.0", "mmHg", "IN", "BEATS/MIN", "mmHg", "F", "LB", "", "", "", "", "", "", "ORAL CAVITY", "SCREENING 1", "24-JUN-2014", "24-JUN-2014", "24-JUN-2014", "24-JUN-2014", "24-JUN-2014", "24-JUN-2014", "24-JUN-2014", "AFTER LYING DOWN FOR 5 MINUTES", "AFTER LYING DOWN FOR 5 MINUTES", "AFTER LYING DOWN FOR 5 MINUTES", 815, 815, 815]
["CDISCPILOT01", "701", "1034", "STANDING", "STANDING", "STANDING", "73", "", "76", "183", "", "", "mmHg", "", "BEATS/MIN", "mmHg", "", "", "", "", "", "", "", "", "", "SCREENING 1", "24-JUN-2014", "24-JUN-2014", "", "24-JUN-2014", "24-JUN-2014", "", "", "AFTER STANDING FOR 1 MINUTE", "AFTER STANDING FOR 1 MINUTE", "AFTER STANDING FOR 1 MINUTE", 816, 816, 816]
["CDISCPILOT01", "701", "1034", "STANDING", "STANDING", "STANDING", "79", "", "74", "151", "", "", "mmHg", "", "BEATS/MIN", "mmHg", "", "", "", "", "", "", "", "", "", "SCREENING 1", "24-JUN-2014", "24-JUN-2014", "", "24-JUN-2014", "24-JUN-2014", "", "", "AFTER STANDING FOR 3 MINUTES", "AFTER STANDING FOR 3 MINUTES", "AFTER STANDING FOR 3 MINUTES", 817, 817, 817]
["CDISCPILOT01", "701", "1034", "SUPINE", "SUPINE", "SUPINE", "62", "", "75", "158", "97.7", "", "mmHg", "", "BEATS/MIN", "mmHg", "F", "", "", "", "", "", "", "", "ORAL CAVITY", "SCREENING 2", "29-JUN-2014", "29-JUN-2014", "", "29-JUN-2014", "29-JUN-2014", "29-JUN-2014", "", "AFTER LYING DOWN FOR 5 MINUTES", "AFTER LYING DOWN FOR 5 MINUTES", "AFTER LYING DOWN FOR 5 MINUTES", 815, 815, 815]
["CDISCPILOT01", "701", "1034", "STANDING", "STANDING", "STANDING", "81", "", "79", "155", "", "", "mmHg", "", "BEATS/MIN", "mmHg", "", "", "", "", "", "", "", "", "", "SCREENING 2", "29-JUN-2014", "29-JUN-2014", "", "29-JUN-2014", "29-JUN-2014", "", "", "AFTER STANDING FOR 1 MINUTE", "AFTER STANDING FOR 1 MINUTE", "AFTER STANDING FOR 1 MINUTE", 816, 816, 816]
["CDISCPILOT01", "701", "1034", "STANDING", "STANDING", "STANDING", "69", "", "79", "155", "", "", "mmHg", "", "BEATS/MIN", "mmHg", "", "", "", "", "", "", "", "", "", "SCREENING 2", "29-JUN-2014", "29-JUN-2014", "", "29-JUN-2014", "29-JUN-2014", "", "", "AFTER STANDING FOR 3 MINUTES", "AFTER STANDING FOR 3 MINUTES", "AFTER STANDING FOR 3 MINUTES", 817, 817, 817]
["CDISCPILOT01", "701", "1034", "SUPINE", "SUPINE", "SUPINE", "60", "", "76", "163", "98.5", "138.0", "mmHg", "", "BEATS/MIN", "mmHg", "F", "LB", "", "", "", "", "", "", "ORAL CAVITY", "BASELINE", "01-JUL-2014", "01-JUL-2014", "", "01-JUL-2014", "01-JUL-2014", "01-JUL-2014", "01-JUL-2014", "AFTER LYING DOWN FOR 5 MINUTES", "AFTER LYING DOWN FOR 5 MINUTES", "AFTER LYING DOWN FOR 5 MINUTES", 815, 815, 815]
["CDISCPILOT01", "701", "1034", "STANDING", "STANDING", "STANDING", "75", "", "83", "177", "", "", "mmHg", "", "BEATS/MIN", "mmHg", "", "", "", "", "", "", "", "", "", "BASELINE", "01-JUL-2014", "01-JUL-2014", "", "01-JUL-2014", "01-JUL-2014", "", "", "AFTER STANDING FOR 1 MINUTE", "AFTER STANDING FOR 1 MINUTE", "AFTER STANDING FOR 1 MINUTE", 816, 816, 816]
["CDISCPILOT01", "701", "1034", "STANDING", "STANDING", "STANDING", "82", "", "80", "168", "", "", "mmHg", "", "BEATS/MIN", "mmHg", "", "", "", "", "", "", "", "", "", "BASELINE", "01-JUL-2014", "01-JUL-2014", "", "01-JUL-2014", "01-JUL-2014", "", "", "AFTER STANDING FOR 3 MINUTES", "AFTER STANDING FOR 3 MINUTES", "AFTER STANDING FOR 3 MINUTES", 817, 817, 817]
["CDISCPILOT01", "701", "1034", "SUPINE", "SUPINE", "SUPINE", "81", "", "86", "183", "97.8", "138.0", "mmHg", "", "BEATS/MIN", "mmHg", "F", "LB", "", "", "", "", "", "", "ORAL CAVITY", "WEEK 2", "15-JUL-2014", "15-JUL-2014", "", "15-JUL-2014", "15-JUL-2014", "15-JUL-2014", "15-JUL-2014", "AFTER LYING DOWN FOR 5 MINUTES", "AFTER LYING DOWN FOR 5 MINUTES", "AFTER LYING DOWN FOR 5 MINUTES", 815, 815, 815]
["CDISCPILOT01", "701", "1034", "STANDING", "STANDING", "STANDING", "101", "", "91", "191", "", "", "mmHg", "", "BEATS/MIN", "mmHg", "", "", "", "", "", "", "", "", "", "WEEK 2", "15-JUL-2014", "15-JUL-2014", "", "15-JUL-2014", "15-JUL-2014", "", "", "AFTER STANDING FOR 1 MINUTE", "AFTER STANDING FOR 1 MINUTE", "AFTER STANDING FOR 1 MINUTE", 816, 816, 816]
["CDISCPILOT01", "701", "1034", "STANDING", "STANDING", "STANDING", "84", "", "86", "161", "", "", "mmHg", "", "BEATS/MIN", "mmHg", "", "", "", "", "", "", "", "", "", "WEEK 2", "15-JUL-2014", "15-JUL-2014", "", "15-JUL-2014", "15-JUL-2014", "", "", "AFTER STANDING FOR 3 MINUTES", "AFTER STANDING FOR 3 MINUTES", "AFTER STANDING FOR 3 MINUTES", 817, 817, 817]
["CDISCPILOT01", "701", "1034", "SUPINE", "SUPINE", "SUPINE", "71", "", "87", "165", "97.9", "141.0", "mmHg", "", "BEATS/MIN", "mmHg", "F", "LB", "", "", "", "", "", "", "ORAL CAVITY", "WEEK 4", "29-JUL-2014", "29-JUL-2014", "", "29-JUL-2014", "29-JUL-2014", "29-JUL-2014", "29-JUL-2014", "AFTER LYING DOWN FOR 5 MINUTES", "AFTER LYING DOWN FOR 5 MINUTES", "AFTER LYING DOWN FOR 5 MINUTES", 815, 815, 815]
["CDISCPILOT01", "701", "1034", "STANDING", "STANDING", "STANDING", "69", "", "91", "170", "", "", "mmHg", "", "BEATS/MIN", "mmHg", "", "", "", "", "", "", "", "", "", "WEEK 4", "29-JUL-2014", "29-JUL-2014", "", "29-JUL-2014", "29-JUL-2014", "", "", "AFTER STANDING FOR 1 MINUTE", "AFTER STANDING FOR 1 MINUTE", "AFTER STANDING FOR 1 MINUTE", 816, 816, 816]
["CDISCPILOT01", "701", "1034", "STANDING", "STANDING", "STANDING", "71", "", "88", "169", "", "", "mmHg", "", "BEATS/MIN", "mmHg", "", "", "", "", "", "", "", "", "", "WEEK 4", "29-JUL-2014", "29-JUL-2014", "", "29-JUL-2014", "29-JUL-2014", "", "", "AFTER STANDING FOR 3 MINUTES", "AFTER STANDING FOR 3 MINUTES", "AFTER STANDING FOR 3 MINUTES", 817, 817, 817]
["CDISCPILOT01", "701", "1034", "SUPINE", "SUPINE", "SUPINE", "54", "", "83", "140", "98.3", "", "mmHg", "", "BEATS/MIN", "mmHg", "F", "", "", "", "", "", "", "", "ORAL CAVITY", "AMBUL ECG REMOVAL", "31-JUL-2014", "31-JUL-2014", "", "31-JUL-2014", "31-JUL-2014", "31-JUL-2014", "", "AFTER LYING DOWN FOR 5 MINUTES", "AFTER LYING DOWN FOR 5 MINUTES", "AFTER LYING DOWN FOR 5 MINUTES", 815, 815, 815]
["CDISCPILOT01", "701", "1034", "STANDING", "STANDING", "STANDING", "65", "", "90", "166", "", "", "mmHg", "", "BEATS/MIN", "mmHg", "", "", "", "", "", "", "", "", "", "AMBUL ECG REMOVAL", "31-JUL-2014", "31-JUL-2014", "", "31-JUL-2014", "31-JUL-2014", "", "", "AFTER STANDING FOR 1 MINUTE", "AFTER STANDING FOR 1 MINUTE", "AFTER STANDING FOR 1 MINUTE", 816, 816, 816]
["CDISCPILOT01", "701", "1034", "STANDING", "STANDING", "STANDING", "61", "", "86", "159", "", "", "mmHg", "", "BEATS/MIN", "mmHg", "", "", "", "", "", "", "", "", "", "AMBUL ECG REMOVAL", "31-JUL-2014", "31-JUL-2014", "", "31-JUL-2014", "31-JUL-2014", "", "", "AFTER STANDING FOR 3 MINUTES", "AFTER STANDING FOR 3 MINUTES", "AFTER STANDING FOR 3 MINUTES", 817, 817, 817]
["CDISCPILOT01", "701", "1034", "SUPINE", "SUPINE", "SUPINE", "57", "", "97", "145", "98.7", "141.0", "mmHg", "", "BEATS/MIN", "mmHg", "F", "LB", "", "", "", "", "", "", "ORAL CAVITY", "WEEK 6", "11-AUG-2014", "11-AUG-2014", "", "11-AUG-2014", "11-AUG-2014", "11-AUG-2014", "11-AUG-2014", "AFTER LYING DOWN FOR 5 MINUTES", "AFTER LYING DOWN FOR 5 MINUTES", "AFTER LYING DOWN FOR 5 MINUTES", 815, 815, 815]
["CDISCPILOT01", "701", "1034", "STANDING", "STANDING", "STANDING", "76", "", "93", "174", "", "", "mmHg", "", "BEATS/MIN", "mmHg", "", "", "", "", "", "", "", "", "", "WEEK 6", "11-AUG-2014", "11-AUG-2014", "", "11-AUG-2014", "11-AUG-2014", "", "", "AFTER STANDING FOR 1 MINUTE", "AFTER STANDING FOR 1 MINUTE", "AFTER STANDING FOR 1 MINUTE", 816, 816, 816]
["CDISCPILOT01", "701", "1034", "STANDING", "STANDING", "STANDING", "80", "", "94", "170", "", "", "mmHg", "", "BEATS/MIN", "mmHg", "", "", "", "", "", "", "", "", "", "WEEK 6", "11-AUG-2014", "11-AUG-2014", "", "11-AUG-2014", "11-AUG-2014", "", "", "AFTER STANDING FOR 3 MINUTES", "AFTER STANDING FOR 3 MINUTES", "AFTER STANDING FOR 3 MINUTES", 817, 817, 817]
["CDISCPILOT01", "701", "1034", "SUPINE", "SUPINE", "SUPINE", "73", "", "78", "188", "98.1", "139.0", "mmHg", "", "BEATS/MIN", "mmHg", "F", "LB", "", "", "", "", "", "", "ORAL CAVITY", "WEEK 8", "26-AUG-2014", "26-AUG-2014", "", "26-AUG-2014", "26-AUG-2014", "26-AUG-2014", "26-AUG-2014", "AFTER LYING DOWN FOR 5 MINUTES", "AFTER LYING DOWN FOR 5 MINUTES", "AFTER LYING DOWN FOR 5 MINUTES", 815, 815, 815]
["CDISCPILOT01", "701", "1034", "STANDING", "STANDING", "STANDING", "80", "", "71", "197", "", "", "mmHg", "", "BEATS/MIN", "mmHg", "", "", "", "", "", "", "", "", "", "WEEK 8", "26-AUG-2014", "26-AUG-2014", "", "26-AUG-2014", "26-AUG-2014", "", "", "AFTER STANDING FOR 1 MINUTE", "AFTER STANDING FOR 1 MINUTE", "AFTER STANDING FOR 1 MINUTE", 816, 816, 816]
["CDISCPILOT01", "701", "1034", "STANDING", "STANDING", "STANDING", "76", "", "71", "198", "", "", "mmHg", "", "BEATS/MIN", "mmHg", "", "", "", "", "", "", "", "", "", "WEEK 8", "26-AUG-2014", "26-AUG-2014", "", "26-AUG-2014", "26-AUG-2014", "", "", "AFTER STANDING FOR 3 MINUTES", "AFTER STANDING FOR 3 MINUTES", "AFTER STANDING FOR 3 MINUTES", 817, 817, 817]
["CDISCPILOT01", "701", "1034", "SUPINE", "SUPINE", "SUPINE", "71", "", "66", "145", "98.7", "139.0", "mmHg", "", "BEATS/MIN", "mmHg", "F", "LB", "", "", "", "", "", "", "ORAL CAVITY", "WEEK 12", "25-SEP-2014", "25-SEP-2014", "", "25-SEP-2014", "25-SEP-2014", "25-SEP-2014", "25-SEP-2014", "AFTER LYING DOWN FOR 5 MINUTES", "AFTER LYING DOWN FOR 5 MINUTES", "AFTER LYING DOWN FOR 5 MINUTES", 815, 815, 815]
["CDISCPILOT01", "701", "1034", "STANDING", "STANDING", "STANDING", "66", "", "70", "150", "", "", "mmHg", "", "BEATS/MIN", "mmHg", "", "", "", "", "", "", "", "", "", "WEEK 12", "25-SEP-2014", "25-SEP-2014", "", "25-SEP-2014", "25-SEP-2014", "", "", "AFTER STANDING FOR 1 MINUTE", "AFTER STANDING FOR 1 MINUTE", "AFTER STANDING FOR 1 MINUTE", 816, 816, 816]
["CDISCPILOT01", "701", "1034", "STANDING", "STANDING", "STANDING", "63", "", "69", "177", "", "", "mmHg", "", "BEATS/MIN", "mmHg", "", "", "", "", "", "", "", "", "", "WEEK 12", "25-SEP-2014", "25-SEP-2014", "", "25-SEP-2014", "25-SEP-2014", "", "", "AFTER STANDING FOR 3 MINUTES", "AFTER STANDING FOR 3 MINUTES", "AFTER STANDING FOR 3 MINUTES", 817, 817, 817]
["CDISCPILOT01", "701", "1034", "SUPINE", "SUPINE", "SUPINE", "87", "", "74", "154", "98.5", "142.0", "mmHg", "", "BEATS/MIN", "mmHg", "F", "LB", "", "", "", "", "", "", "ORAL CAVITY", "WEEK 16", "21-OCT-2014", "21-OCT-2014", "", "21-OCT-2014", "21-OCT-2014", "21-OCT-2014", "21-OCT-2014", "AFTER LYING DOWN FOR 5 MINUTES", "AFTER LYING DOWN FOR 5 MINUTES", "AFTER LYING DOWN FOR 5 MINUTES", 815, 815, 815]
["CDISCPILOT01", "701", "1034", "STANDING", "STANDING", "STANDING", "77", "", "79", "183", "", "", "mmHg", "", "BEATS/MIN", "mmHg", "", "", "", "", "", "", "", "", "", "WEEK 16", "21-OCT-2014", "21-OCT-2014", "", "21-OCT-2014", "21-OCT-2014", "", "", "AFTER STANDING FOR 1 MINUTE", "AFTER STANDING FOR 1 MINUTE", "AFTER STANDING FOR 1 MINUTE", 816, 816, 816]
["CDISCPILOT01", "701", "1034", "STANDING", "STANDING", "STANDING", "72", "", "78", "186", "", "", "mmHg", "", "BEATS/MIN", "mmHg", "", "", "", "", "", "", "", "", "", "WEEK 16", "21-OCT-2014", "21-OCT-2014", "", "21-OCT-2014", "21-OCT-2014", "", "", "AFTER STANDING FOR 3 MINUTES", "AFTER STANDING FOR 3 MINUTES", "AFTER STANDING FOR 3 MINUTES", 817, 817, 817]
["CDISCPILOT01", "701", "1034", "SUPINE", "SUPINE", "SUPINE", "78", "", "86", "167", "98.4", "143.0", "mmHg", "", "BEATS/MIN", "mmHg", "F", "LB", "", "", "", "", "", "", "ORAL CAVITY", "WEEK 20", "18-NOV-2014", "18-NOV-2014", "", "18-NOV-2014", "18-NOV-2014", "18-NOV-2014", "18-NOV-2014", "AFTER LYING DOWN FOR 5 MINUTES", "AFTER LYING DOWN FOR 5 MINUTES", "AFTER LYING DOWN FOR 5 MINUTES", 815, 815, 815]
["CDISCPILOT01", "701", "1034", "STANDING", "STANDING", "STANDING", "77", "", "84", "181", "", "", "mmHg", "", "BEATS/MIN", "mmHg", "", "", "", "", "", "", "", "", "", "WEEK 20", "18-NOV-2014", "18-NOV-2014", "", "18-NOV-2014", "18-NOV-2014", "", "", "AFTER STANDING FOR 1 MINUTE", "AFTER STANDING FOR 1 MINUTE", "AFTER STANDING FOR 1 MINUTE", 816, 816, 816]
["CDISCPILOT01", "701", "1034", "STANDING", "STANDING", "STANDING", "72", "", "80", "185", "", "", "mmHg", "", "BEATS/MIN", "mmHg", "", "", "", "", "", "", "", "", "", "WEEK 20", "18-NOV-2014", "18-NOV-2014", "", "18-NOV-2014", "18-NOV-2014", "", "", "AFTER STANDING FOR 3 MINUTES", "AFTER STANDING FOR 3 MINUTES", "AFTER STANDING FOR 3 MINUTES", 817, 817, 817]
["CDISCPILOT01", "701", "1034", "SUPINE", "SUPINE", "SUPINE", "81", "", "96", "178", "98.1", "144.0", "mmHg", "", "BEATS/MIN", "mmHg", "F", "LB", "", "", "", "", "", "", "ORAL CAVITY", "WEEK 24", "17-DEC-2014", "17-DEC-2014", "", "17-DEC-2014", "17-DEC-2014", "17-DEC-2014", "17-DEC-2014", "AFTER LYING DOWN FOR 5 MINUTES", "AFTER LYING DOWN FOR 5 MINUTES", "AFTER LYING DOWN FOR 5 MINUTES", 815, 815, 815]
["CDISCPILOT01", "701", "1034", "STANDING", "STANDING", "STANDING", "97", "", "97", "198", "", "", "mmHg", "", "BEATS/MIN", "mmHg", "", "", "", "", "", "", "", "", "", "WEEK 24", "17-DEC-2014", "17-DEC-2014", "", "17-DEC-2014", "17-DEC-2014", "", "", "AFTER STANDING FOR 1 MINUTE", "AFTER STANDING FOR 1 MINUTE", "AFTER STANDING FOR 1 MINUTE", 816, 816, 816]
["CDISCPILOT01", "701", "1034", "STANDING", "STANDING", "STANDING", "98", "", "91", "164", "", "", "mmHg", "", "BEATS/MIN", "mmHg", "", "", "", "", "", "", "", "", "", "WEEK 24", "17-DEC-2014", "17-DEC-2014", "", "17-DEC-2014", "17-DEC-2014", "", "", "AFTER STANDING FOR 3 MINUTES", "AFTER STANDING FOR 3 MINUTES", "AFTER STANDING FOR 3 MINUTES", 817, 817, 817]
["CDISCPILOT01", "701", "1034", "SUPINE", "SUPINE", "SUPINE", "67", "", "74", "154", "97.8", "141.0", "mmHg", "", "BEATS/MIN", "mmHg", "F", "LB", "", "", "", "", "", "", "ORAL CAVITY", "WEEK 26", "30-DEC-2014", "30-DEC-2014", "", "30-DEC-2014", "30-DEC-2014", "30-DEC-2014", "30-DEC-2014", "AFTER LYING DOWN FOR 5 MINUTES", "AFTER LYING DOWN FOR 5 MINUTES", "AFTER LYING DOWN FOR 5 MINUTES", 815, 815, 815]
["CDISCPILOT01", "701", "1034", "STANDING", "STANDING", "STANDING", "93", "", "86", "150", "", "", "mmHg", "", "BEATS/MIN", "mmHg", "", "", "", "", "", "", "", "", "", "WEEK 26", "30-DEC-2014", "30-DEC-2014", "", "30-DEC-2014", "30-DEC-2014", "", "", "AFTER STANDING FOR 1 MINUTE", "AFTER STANDING FOR 1 MINUTE", "AFTER STANDING FOR 1 MINUTE", 816, 816, 816]
["CDISCPILOT01", "701", "1034", "STANDING", "STANDING", "STANDING", "66", "", "76", "179", "", "", "mmHg", "", "BEATS/MIN", "mmHg", "", "", "", "", "", "", "", "", "", "WEEK 26", "30-DEC-2014", "30-DEC-2014", "", "30-DEC-2014", "30-DEC-2014", "", "", "AFTER STANDING FOR 3 MINUTES", "AFTER STANDING FOR 3 MINUTES", "AFTER STANDING FOR 3 MINUTES", 817, 817, 817]
["CDISCPILOT01", "701", "1047", "SUPINE", "SUPINE", "SUPINE", "68", "58.5", "53", "165", "", "146.0", "mmHg", "IN", "BEATS/MIN", "mmHg", "", "LB", "", "", "", "", "", "", "", "SCREENING 1", "22-JAN-2013", "22-JAN-2013", "22-JAN-2013", "22-JAN-2013", "22-JAN-2013", "", "22-JAN-2013", "AFTER LYING DOWN FOR 5 MINUTES", "AFTER LYING DOWN FOR 5 MINUTES", "AFTER LYING DOWN FOR 5 MINUTES", 815, 815, 815]
["CDISCPILOT01", "701", "1047", "STANDING", "STANDING", "STANDING", "71", "", "64", "162", "", "", "mmHg", "", "BEATS/MIN", "mmHg", "", "", "", "", "", "", "", "", "", "SCREENING 1", "22-JAN-2013", "22-JAN-2013", "", "22-JAN-2013", "22-JAN-2013", "", "", "AFTER STANDING FOR 1 MINUTE", "AFTER STANDING FOR 1 MINUTE", "AFTER STANDING FOR 1 MINUTE", 816, 816, 816]
["CDISCPILOT01", "701", "1047", "STANDING", "STANDING", "STANDING", "83", "", "61", "161", "", "", "mmHg", "", "BEATS/MIN", "mmHg", "", "", "", "", "", "", "", "", "", "SCREENING 1", "22-JAN-2013", "22-JAN-2013", "", "22-JAN-2013", "22-JAN-2013", "", "", "AFTER STANDING FOR 3 MINUTES", "AFTER STANDING FOR 3 MINUTES", "AFTER STANDING FOR 3 MINUTES", 817, 817, 817]
["CDISCPILOT01", "701", "1047", "SUPINE", "SUPINE", "SUPINE", "65", "", "58", "159", "97.9", "", "mmHg", "", "BEATS/MIN", "mmHg", "F", "", "", "", "", "", "", "", "ORAL CAVITY", "SCREENING 2", "10-FEB-2013", "10-FEB-2013", "", "10-FEB-2013", "10-FEB-2013", "10-FEB-2013", "", "AFTER LYING DOWN FOR 5 MINUTES", "AFTER LYING DOWN FOR 5 MINUTES", "AFTER LYING DOWN FOR 5 MINUTES", 815, 815, 815]
["CDISCPILOT01", "701", "1047", "STANDING", "STANDING", "STANDING", "86", "", "74", "152", "", "", "mmHg", "", "BEATS/MIN", "mmHg", "", "", "", "", "", "", "", "", "", "SCREENING 2", "10-FEB-2013", "10-FEB-2013", "", "10-FEB-2013", "10-FEB-2013", "", "", "AFTER STANDING FOR 1 MINUTE", "AFTER STANDING FOR 1 MINUTE", "AFTER STANDING FOR 1 MINUTE", 816, 816, 816]
["CDISCPILOT01", "701", "1047", "STANDING", "STANDING", "STANDING", "71", "", "73", "138", "", "", "mmHg", "", "BEATS/MIN", "mmHg", "", "", "", "", "", "", "", "", "", "SCREENING 2", "10-FEB-2013", "10-FEB-2013", "", "10-FEB-2013", "10-FEB-2013", "", "", "AFTER STANDING FOR 3 MINUTES", "AFTER STANDING FOR 3 MINUTES", "AFTER STANDING FOR 3 MINUTES", 817, 817, 817]
["CDISCPILOT01", "701", "1047", "SUPINE", "SUPINE", "SUPINE", "61", "", "58", "151", "97.5", "148.0", "mmHg", "", "BEATS/MIN", "mmHg", "F", "LB", "", "", "", "", "", "", "ORAL CAVITY", "BASELINE", "12-FEB-2013", "12-FEB-2013", "", "12-FEB-2013", "12-FEB-2013", "12-FEB-2013", "12-FEB-2013", "AFTER LYING DOWN FOR 5 MINUTES", "AFTER LYING DOWN FOR 5 MINUTES", "AFTER LYING DOWN FOR 5 MINUTES", 815, 815, 815]
["CDISCPILOT01", "701", "1047", "STANDING", "STANDING", "STANDING", "68", "", "67", "145", "", "", "mmHg", "", "BEATS/MIN", "mmHg", "", "", "", "", "", "", "", "", "", "BASELINE", "12-FEB-2013", "12-FEB-2013", "", "12-FEB-2013", "12-FEB-2013", "", "", "AFTER STANDING FOR 1 MINUTE", "AFTER STANDING FOR 1 MINUTE", "AFTER STANDING FOR 1 MINUTE", 816, 816, 816]
["CDISCPILOT01", "701", "1047", "STANDING", "STANDING", "STANDING", "78", "", "67", "167", "", "", "mmHg", "", "BEATS/MIN", "mmHg", "", "", "", "", "", "", "", "", "", "BASELINE", "12-FEB-2013", "12-FEB-2013", "", "12-FEB-2013", "12-FEB-2013", "", "", "AFTER STANDING FOR 3 MINUTES", "AFTER STANDING FOR 3 MINUTES", "AFTER STANDING FOR 3 MINUTES", 817, 817, 817]
["CDISCPILOT01", "701", "1047", "SUPINE", "SUPINE", "SUPINE", "72", "", "62", "146", "97.0", "", "mmHg", "", "BEATS/MIN", "mmHg", "F", "", "", "", "", "", "", "", "ORAL CAVITY", "AMBUL ECG PLACEMENT", "24-FEB-2013", "24-FEB-2013", "", "24-FEB-2013", "24-FEB-2013", "24-FEB-2013", "", "AFTER LYING DOWN FOR 5 MINUTES", "AFTER LYING DOWN FOR 5 MINUTES", "AFTER LYING DOWN FOR 5 MINUTES", 815, 815, 815]
["CDISCPILOT01", "701", "1047", "STANDING", "STANDING", "STANDING", "56", "", "74", "137", "", "", "mmHg", "", "BEATS/MIN", "mmHg", "", "", "", "", "", "", "", "", "", "AMBUL ECG PLACEMENT", "24-FEB-2013", "24-FEB-2013", "", "24-FEB-2013", "24-FEB-2013", "", "", "AFTER STANDING FOR 1 MINUTE", "AFTER STANDING FOR 1 MINUTE", "AFTER STANDING FOR 1 MINUTE", 816, 816, 816]
["CDISCPILOT01", "701", "1047", "STANDING", "STANDING", "STANDING", "73", "", "72", "148", "", "", "mmHg", "", "BEATS/MIN", "mmHg", "", "", "", "", "", "", "", "", "", "AMBUL ECG PLACEMENT", "24-FEB-2013", "24-FEB-2013", "", "24-FEB-2013", "24-FEB-2013", "", "", "AFTER STANDING FOR 3 MINUTES", "AFTER STANDING FOR 3 MINUTES", "AFTER STANDING FOR 3 MINUTES", 817, 817, 817]
["CDISCPILOT01", "701", "1047", "SUPINE", "SUPINE", "SUPINE", "72", "", "66", "145", "98.9", "149.0", "mmHg", "", "BEATS/MIN", "mmHg", "F", "LB", "", "", "", "", "", "", "ORAL CAVITY", "WEEK 2", "25-FEB-2013", "25-FEB-2013", "", "25-FEB-2013", "25-FEB-2013", "25-FEB-2013", "25-FEB-2013", "AFTER LYING DOWN FOR 5 MINUTES", "AFTER LYING DOWN FOR 5 MINUTES", "AFTER LYING DOWN FOR 5 MINUTES", 815, 815, 815]
["CDISCPILOT01", "701", "1047", "STANDING", "STANDING", "STANDING", "84", "", "75", "146", "", "", "mmHg", "", "BEATS/MIN", "mmHg", "", "", "", "", "", "", "", "", "", "WEEK 2", "25-FEB-2013", "25-FEB-2013", "", "25-FEB-2013", "25-FEB-2013", "", "", "AFTER STANDING FOR 1 MINUTE", "AFTER STANDING FOR 1 MINUTE", "AFTER STANDING FOR 1 MINUTE", 816, 816, 816]
["CDISCPILOT01", "701", "1047", "STANDING", "STANDING", "STANDING", "73", "", "78", "153", "", "", "mmHg", "", "BEATS/MIN", "mmHg", "", "", "", "", "", "", "", "", "", "WEEK 2", "25-FEB-2013", "25-FEB-2013", "", "25-FEB-2013", "25-FEB-2013", "", "", "AFTER STANDING FOR 3 MINUTES", "AFTER STANDING FOR 3 MINUTES", "AFTER STANDING FOR 3 MINUTES", 817, 817, 817]
["CDISCPILOT01", "701", "1047", "SUPINE", "SUPINE", "SUPINE", "72", "", "69", "135", "97.8", "149.0", "mmHg", "", "BEATS/MIN", "mmHg", "F", "LB", "", "", "", "", "", "", "ORAL CAVITY", "WEEK 4", "10-MAR-2013", "10-MAR-2013", "", "10-MAR-2013", "10-MAR-2013", "10-MAR-2013", "10-MAR-2013", "AFTER LYING DOWN FOR 5 MINUTES", "AFTER LYING DOWN FOR 5 MINUTES", "AFTER LYING DOWN FOR 5 MINUTES", 815, 815, 815]
["CDISCPILOT01", "701", "1047", "STANDING", "STANDING", "STANDING", "71", "", "64", "145", "", "", "mmHg", "", "BEATS/MIN", "mmHg", "", "", "", "", "", "", "", "", "", "WEEK 4", "10-MAR-2013", "10-MAR-2013", "", "10-MAR-2013", "10-MAR-2013", "", "", "AFTER STANDING FOR 1 MINUTE", "AFTER STANDING FOR 1 MINUTE", "AFTER STANDING FOR 1 MINUTE", 816, 816, 816]
["CDISCPILOT01", "701", "1047", "STANDING", "STANDING", "STANDING", "78", "", "70", "143", "", "", "mmHg", "", "BEATS/MIN", "mmHg", "", "", "", "", "", "", "", "", "", "WEEK 4", "10-MAR-2013", "10-MAR-2013", "", "10-MAR-2013", "10-MAR-2013", "", "", "AFTER STANDING FOR 3 MINUTES", "AFTER STANDING FOR 3 MINUTES", "AFTER STANDING FOR 3 MINUTES", 817, 817, 817]
["CDISCPILOT01", "701", "1047", "SUPINE", "SUPINE", "SUPINE", "71", "", "78", "123", "98.5", "148.0", "mmHg", "", "BEATS/MIN", "mmHg", "F", "LB", "", "", "", "", "", "", "ORAL CAVITY", "AMBUL ECG REMOVAL", "29-MAR-2013", "29-MAR-2013", "", "29-MAR-2013", "29-MAR-2013", "29-MAR-2013", "29-MAR-2013", "AFTER LYING DOWN FOR 5 MINUTES", "AFTER LYING DOWN FOR 5 MINUTES", "AFTER LYING DOWN FOR 5 MINUTES", 815, 815, 815]
["CDISCPILOT01", "701", "1047", "STANDING", "STANDING", "STANDING", "63", "", "90", "115", "", "", "mmHg", "", "BEATS/MIN", "mmHg", "", "", "", "", "", "", "", "", "", "AMBUL ECG REMOVAL", "29-MAR-2013", "29-MAR-2013", "", "29-MAR-2013", "29-MAR-2013", "", "", "AFTER STANDING FOR 1 MINUTE", "AFTER STANDING FOR 1 MINUTE", "AFTER STANDING FOR 1 MINUTE", 816, 816, 816]
["CDISCPILOT01", "701", "1047", "STANDING", "STANDING", "STANDING", "57", "", "87", "123", "", "", "mmHg", "", "BEATS/MIN", "mmHg", "", "", "", "", "", "", "", "", "", "AMBUL ECG REMOVAL", "29-MAR-2013", "29-MAR-2013", "", "29-MAR-2013", "29-MAR-2013", "", "", "AFTER STANDING FOR 3 MINUTES", "AFTER STANDING FOR 3 MINUTES", "AFTER STANDING FOR 3 MINUTES", 817, 817, 817]
["CDISCPILOT01", "701", "1047", "SUPINE", "SUPINE", "SUPINE", "76", "", "58", "139", "98.4", "", "mmHg", "", "BEATS/MIN", "mmHg", "F", "", "", "", "", "", "", "", "ORAL CAVITY", "RETRIEVAL", "28-JUL-2013", "28-JUL-2013", "", "28-JUL-2013", "28-JUL-2013", "28-JUL-2013", "", "AFTER LYING DOWN FOR 5 MINUTES", "AFTER LYING DOWN FOR 5 MINUTES", "AFTER LYING DOWN FOR 5 MINUTES", 815, 815, 815]
["CDISCPILOT01", "701", "1047", "STANDING", "STANDING", "STANDING", "71", "", "72", "130", "", "", "mmHg", "", "BEATS/MIN", "mmHg", "", "", "", "", "", "", "", "", "", "RETRIEVAL", "28-JUL-2013", "28-JUL-2013", "", "28-JUL-2013", "28-JUL-2013", "", "", "AFTER STANDING FOR 1 MINUTE", "AFTER STANDING FOR 1 MINUTE", "AFTER STANDING FOR 1 MINUTE", 816, 816, 816]
["CDISCPILOT01", "701", "1047", "STANDING", "STANDING", "STANDING", "65", "", "72", "139", "", "", "mmHg", "", "BEATS/MIN", "mmHg", "", "", "", "", "", "", "", "", "", "RETRIEVAL", "28-JUL-2013", "28-JUL-2013", "", "28-JUL-2013", "28-JUL-2013", "", "", "AFTER STANDING FOR 3 MINUTES", "AFTER STANDING FOR 3 MINUTES", "AFTER STANDING FOR 3 MINUTES", 817, 817, 817]
["CDISCPILOT01", "701", "1097", "SUPINE", "SUPINE", "SUPINE", "72", "066.5", "59", "138", "096.4", "172.0", "mmHg", "IN", "BEATS/MIN", "mmHg", "F", "LB", "", "", "", "", "", "", "ORAL CAVITY", "SCREENING 1", "23-DEC-2013", "23-DEC-2013", "23-DEC-2013", "23-DEC-2013", "23-DEC-2013", "23-DEC-2013", "23-DEC-2013", "AFTER LYING DOWN FOR 5 MINUTES", "AFTER LYING DOWN FOR 5 MINUTES", "AFTER LYING DOWN FOR 5 MINUTES", 815, 815, 815]
["CDISCPILOT01", "701", "1097", "STANDING", "STANDING", "STANDING", "74", "", "66", "137", "", "", "mmHg", "", "BEATS/MIN", "mmHg", "", "", "", "", "", "", "", "", "", "SCREENING 1", "23-DEC-2013", "23-DEC-2013", "", "23-DEC-2013", "23-DEC-2013", "", "", "AFTER STANDING FOR 1 MINUTE", "AFTER STANDING FOR 1 MINUTE", "AFTER STANDING FOR 1 MINUTE", 816, 816, 816]
["CDISCPILOT01", "701", "1097", "STANDING", "STANDING", "STANDING", "79", "", "65", "139", "", "", "mmHg", "", "BEATS/MIN", "mmHg", "", "", "", "", "", "", "", "", "", "SCREENING 1", "23-DEC-2013", "23-DEC-2013", "", "23-DEC-2013", "23-DEC-2013", "", "", "AFTER STANDING FOR 3 MINUTES", "AFTER STANDING FOR 3 MINUTES", "AFTER STANDING FOR 3 MINUTES", 817, 817, 817]
["CDISCPILOT01", "701", "1097", "SUPINE", "SUPINE", "SUPINE", "65", "", "60", "131", "098.1", "", "mmHg", "", "BEATS/MIN", "mmHg", "F", "", "", "", "", "", "", "", "ORAL CAVITY", "SCREENING 2", "30-DEC-2013", "30-DEC-2013", "", "30-DEC-2013", "30-DEC-2013", "30-DEC-2013", "", "AFTER LYING DOWN FOR 5 MINUTES", "AFTER LYING DOWN FOR 5 MINUTES", "AFTER LYING DOWN FOR 5 MINUTES", 815, 815, 815]
["CDISCPILOT01", "701", "1097", "STANDING", "STANDING", "STANDING", "76", "", "70", "138", "", "", "mmHg", "", "BEATS/MIN", "mmHg", "", "", "", "", "", "", "", "", "", "SCREENING 2", "30-DEC-2013", "30-DEC-2013", "", "30-DEC-2013", "30-DEC-2013", "", "", "AFTER STANDING FOR 1 MINUTE", "AFTER STANDING FOR 1 MINUTE", "AFTER STANDING FOR 1 MINUTE", 816, 816, 816]
["CDISCPILOT01", "701", "1097", "STANDING", "STANDING", "STANDING", "80", "", "66", "138", "", "", "mmHg", "", "BEATS/MIN", "mmHg", "", "", "", "", "", "", "", "", "", "SCREENING 2", "30-DEC-2013", "30-DEC-2013", "", "30-DEC-2013", "30-DEC-2013", "", "", "AFTER STANDING FOR 3 MINUTES", "AFTER STANDING FOR 3 MINUTES", "AFTER STANDING FOR 3 MINUTES", 817, 817, 817]
["CDISCPILOT01", "701", "1097", "SUPINE", "SUPINE", "SUPINE", "72", "", "60", "128", "097.6", "172.0", "mmHg", "", "BEATS/MIN", "mmHg", "F", "LB", "", "", "", "", "", "", "ORAL CAVITY", "BASELINE", "01-JAN-2014", "01-JAN-2014", "", "01-JAN-2014", "01-JAN-2014", "01-JAN-2014", "01-JAN-2014", "AFTER LYING DOWN FOR 5 MINUTES", "AFTER LYING DOWN FOR 5 MINUTES", "AFTER LYING DOWN FOR 5 MINUTES", 815, 815, 815]
["CDISCPILOT01", "701", "1097", "STANDING", "STANDING", "STANDING", "78", "", "68", "130", "", "", "mmHg", "", "BEATS/MIN", "mmHg", "", "", "", "", "", "", "", "", "", "BASELINE", "01-JAN-2014", "01-JAN-2014", "", "01-JAN-2014", "01-JAN-2014", "", "", "AFTER STANDING FOR 1 MINUTE", "AFTER STANDING FOR 1 MINUTE", "AFTER STANDING FOR 1 MINUTE", 816, 816, 816]
["CDISCPILOT01", "701", "1097", "STANDING", "STANDING", "STANDING", "80", "", "64", "132", "", "", "mmHg", "", "BEATS/MIN", "mmHg", "", "", "", "", "", "", "", "", "", "BASELINE", "01-JAN-2014", "01-JAN-2014", "", "01-JAN-2014", "01-JAN-2014", "", "", "AFTER STANDING FOR 3 MINUTES", "AFTER STANDING FOR 3 MINUTES", "AFTER STANDING FOR 3 MINUTES", 817, 817, 817]
["CDISCPILOT01", "701", "1097", "SUPINE", "SUPINE", "SUPINE", "67", "", "55", "121", "097.9", "", "mmHg", "", "BEATS/MIN", "mmHg", "F", "", "", "", "", "", "", "", "ORAL CAVITY", "AMBUL ECG PLACEMENT", "14-JAN-2014", "14-JAN-2014", "", "14-JAN-2014", "14-JAN-2014", "14-JAN-2014", "", "AFTER LYING DOWN FOR 5 MINUTES", "AFTER LYING DOWN FOR 5 MINUTES", "AFTER LYING DOWN FOR 5 MINUTES", 815, 815, 815]
["CDISCPILOT01", "701", "1097", "STANDING", "STANDING", "STANDING", "79", "", "59", "144", "", "", "mmHg", "", "BEATS/MIN", "mmHg", "", "", "", "", "", "", "", "", "", "AMBUL ECG PLACEMENT", "14-JAN-2014", "14-JAN-2014", "", "14-JAN-2014", "14-JAN-2014", "", "", "AFTER STANDING FOR 1 MINUTE", "AFTER STANDING FOR 1 MINUTE", "AFTER STANDING FOR 1 MINUTE", 816, 816, 816]
["CDISCPILOT01", "701", "1097", "STANDING", "STANDING", "STANDING", "67", "", "60", "130", "", "", "mmHg", "", "BEATS/MIN", "mmHg", "", "", "", "", "", "", "", "", "", "AMBUL ECG PLACEMENT", "14-JAN-2014", "14-JAN-2014", "", "14-JAN-2014", "14-JAN-2014", "", "", "AFTER STANDING FOR 3 MINUTES", "AFTER STANDING FOR 3 MINUTES", "AFTER STANDING FOR 3 MINUTES", 817, 817, 817]
["CDISCPILOT01", "701", "1097", "SUPINE", "SUPINE", "SUPINE", "72", "", "66", "124", "097.7", "175.0", "mmHg", "", "BEATS/MIN", "mmHg", "F", "LB", "", "", "", "", "", "", "ORAL CAVITY", "WEEK 2", "15-JAN-2014", "15-JAN-2014", "", "15-JAN-2014", "15-JAN-2014", "15-JAN-2014", "15-JAN-2014", "AFTER LYING DOWN FOR 5 MINUTES", "AFTER LYING DOWN FOR 5 MINUTES", "AFTER LYING DOWN FOR 5 MINUTES", 815, 815, 815]
["CDISCPILOT01", "701", "1097", "STANDING", "STANDING", "STANDING", "82", "", "72", "130", "", "", "mmHg", "", "BEATS/MIN", "mmHg", "", "", "", "", "", "", "", "", "", "WEEK 2", "15-JAN-2014", "15-JAN-2014", "", "15-JAN-2014", "15-JAN-2014", "", "", "AFTER STANDING FOR 1 MINUTE", "AFTER STANDING FOR 1 MINUTE", "AFTER STANDING FOR 1 MINUTE", 816, 816, 816]
["CDISCPILOT01", "701", "1097", "STANDING", "STANDING", "STANDING", "84", "", "68", "132", "", "", "mmHg", "", "BEATS/MIN", "mmHg", "", "", "", "", "", "", "", "", "", "WEEK 2", "15-JAN-2014", "15-JAN-2014", "", "15-JAN-2014", "15-JAN-2014", "", "", "AFTER STANDING FOR 3 MINUTES", "AFTER STANDING FOR 3 MINUTES", "AFTER STANDING FOR 3 MINUTES", 817, 817, 817]
["CDISCPILOT01", "701", "1097", "SUPINE", "SUPINE", "SUPINE", "71", "", "50", "137", "93.7", "175.0", "mmHg", "", "BEATS/MIN", "mmHg", "F", "LB", "", "", "", "", "", "", "ORAL CAVITY", "WEEK 4", "29-JAN-2014", "29-JAN-2014", "", "29-JAN-2014", "29-JAN-2014", "29-JAN-2014", "29-JAN-2014", "AFTER LYING DOWN FOR 5 MINUTES", "AFTER LYING DOWN FOR 5 MINUTES", "AFTER LYING DOWN FOR 5 MINUTES", 815, 815, 815]
["CDISCPILOT01", "701", "1097", "STANDING", "STANDING", "STANDING", "70", "", "54", "134", "", "", "mmHg", "", "BEATS/MIN", "mmHg", "", "", "", "", "", "", "", "", "", "WEEK 4", "29-JAN-2014", "29-JAN-2014", "", "29-JAN-2014", "29-JAN-2014", "", "", "AFTER STANDING FOR 1 MINUTE", "AFTER STANDING FOR 1 MINUTE", "AFTER STANDING FOR 1 MINUTE", 816, 816, 816]
["CDISCPILOT01", "701", "1097", "STANDING", "STANDING", "STANDING", "68", "", "54", "137", "", "", "mmHg", "", "BEATS/MIN", "mmHg", "", "", "", "", "", "", "", "", "", "WEEK 4", "29-JAN-2014", "29-JAN-2014", "", "29-JAN-2014", "29-JAN-2014", "", "", "AFTER STANDING FOR 3 MINUTES", "AFTER STANDING FOR 3 MINUTES", "AFTER STANDING FOR 3 MINUTES", 817, 817, 817]
["CDISCPILOT01", "701", "1097", "SUPINE", "SUPINE", "SUPINE", "68", "", "62", "132", "098.0", "", "mmHg", "", "BEATS/MIN", "mmHg", "F", "", "", "", "", "", "", "", "ORAL CAVITY", "AMBUL ECG REMOVAL", "04-FEB-2014", "04-FEB-2014", "", "04-FEB-2014", "04-FEB-2014", "04-FEB-2014", "", "AFTER LYING DOWN FOR 5 MINUTES", "AFTER LYING DOWN FOR 5 MINUTES", "AFTER LYING DOWN FOR 5 MINUTES", 815, 815, 815]
["CDISCPILOT01", "701", "1097", "STANDING", "STANDING", "STANDING", "70", "", "68", "132", "", "", "mmHg", "", "BEATS/MIN", "mmHg", "", "", "", "", "", "", "", "", "", "AMBUL ECG REMOVAL", "04-FEB-2014", "04-FEB-2014", "", "04-FEB-2014", "04-FEB-2014", "", "", "AFTER STANDING FOR 1 MINUTE", "AFTER STANDING FOR 1 MINUTE", "AFTER STANDING FOR 1 MINUTE", 816, 816, 816]
["CDISCPILOT01", "701", "1097", "STANDING", "STANDING", "STANDING", "70", "", "66", "138", "", "", "mmHg", "", "BEATS/MIN", "mmHg", "", "", "", "", "", "", "", "", "", "AMBUL ECG REMOVAL", "04-FEB-2014", "04-FEB-2014", "", "04-FEB-2014", "04-FEB-2014", "", "", "AFTER STANDING FOR 3 MINUTES", "AFTER STANDING FOR 3 MINUTES", "AFTER STANDING FOR 3 MINUTES", 817, 817, 817]
["CDISCPILOT01", "701", "1097", "SUPINE", "SUPINE", "SUPINE", "68", "", "64", "122", "097.6", "175.0", "mmHg", "", "BEATS/MIN", "mmHg", "F", "LB", "", "", "", "", "", "", "ORAL CAVITY", "WEEK 6", "11-FEB-2014", "11-FEB-2014", "", "11-FEB-2014", "11-FEB-2014", "11-FEB-2014", "11-FEB-2014", "AFTER LYING DOWN FOR 5 MINUTES", "AFTER LYING DOWN FOR 5 MINUTES", "AFTER LYING DOWN FOR 5 MINUTES", 815, 815, 815]
["CDISCPILOT01", "701", "1097", "STANDING", "STANDING", "STANDING", "70", "", "76", "124", "", "", "mmHg", "", "BEATS/MIN", "mmHg", "", "", "", "", "", "", "", "", "", "WEEK 6", "11-FEB-2014", "11-FEB-2014", "", "11-FEB-2014", "11-FEB-2014", "", "", "AFTER STANDING FOR 1 MINUTE", "AFTER STANDING FOR 1 MINUTE", "AFTER STANDING FOR 1 MINUTE", 816, 816, 816]
["CDISCPILOT01", "701", "1097", "STANDING", "STANDING", "STANDING", "78", "", "74", "124", "", "", "mmHg", "", "BEATS/MIN", "mmHg", "", "", "", "", "", "", "", "", "", "WEEK 6", "11-FEB-2014", "11-FEB-2014", "", "11-FEB-2014", "11-FEB-2014", "", "", "AFTER STANDING FOR 3 MINUTES", "AFTER STANDING FOR 3 MINUTES", "AFTER STANDING FOR 3 MINUTES", 817, 817, 817]
["CDISCPILOT01", "701", "1097", "SUPINE", "SUPINE", "SUPINE", "75", "", "54", "136", "98.3", "173.0", "mmHg", "", "BEATS/MIN", "mmHg", "F", "LB", "", "", "", "", "", "", "ORAL CAVITY", "WEEK 8", "26-FEB-2014", "26-FEB-2014", "", "26-FEB-2014", "26-FEB-2014", "26-FEB-2014", "26-FEB-2014", "AFTER LYING DOWN FOR 5 MINUTES", "AFTER LYING DOWN FOR 5 MINUTES", "AFTER LYING DOWN FOR 5 MINUTES", 815, 815, 815]
["CDISCPILOT01", "701", "1097", "STANDING", "STANDING", "STANDING", "73", "", "62", "130", "", "", "mmHg", "", "BEATS/MIN", "mmHg", "", "", "", "", "", "", "", "", "", "WEEK 8", "26-FEB-2014", "26-FEB-2014", "", "26-FEB-2014", "26-FEB-2014", "", "", "AFTER STANDING FOR 1 MINUTE", "AFTER STANDING FOR 1 MINUTE", "AFTER STANDING FOR 1 MINUTE", 816, 816, 816]
["CDISCPILOT01", "701", "1097", "STANDING", "STANDING", "STANDING", "66", "", "61", "131", "", "", "mmHg", "", "BEATS/MIN", "mmHg", "", "", "", "", "", "", "", "", "", "WEEK 8", "26-FEB-2014", "26-FEB-2014", "", "26-FEB-2014", "26-FEB-2014", "", "", "AFTER STANDING FOR 3 MINUTES", "AFTER STANDING FOR 3 MINUTES", "AFTER STANDING FOR 3 MINUTES", 817, 817, 817]
["CDISCPILOT01", "701", "1097", "SUPINE", "SUPINE", "SUPINE", "74", "", "58", "121", "97.5", "176.0", "mmHg", "", "BEATS/MIN", "mmHg", "F", "LB", "", "", "", "", "", "", "ORAL CAVITY", "WEEK 12", "26-MAR-2014", "26-MAR-2014", "", "26-MAR-2014", "26-MAR-2014", "26-MAR-2014", "26-MAR-2014", "AFTER LYING DOWN FOR 5 MINUTES", "AFTER LYING DOWN FOR 5 MINUTES", "AFTER LYING DOWN FOR 5 MINUTES", 815, 815, 815]
["CDISCPILOT01", "701", "1097", "STANDING", "STANDING", "STANDING", "70", "", "72", "132", "", "", "mmHg", "", "BEATS/MIN", "mmHg", "", "", "", "", "", "", "", "", "", "WEEK 12", "26-MAR-2014", "26-MAR-2014", "", "26-MAR-2014", "26-MAR-2014", "", "", "AFTER STANDING FOR 1 MINUTE", "AFTER STANDING FOR 1 MINUTE", "AFTER STANDING FOR 1 MINUTE", 816, 816, 816]
["CDISCPILOT01", "701", "1097", "STANDING", "STANDING", "STANDING", "72", "", "70", "139", "", "", "mmHg", "", "BEATS/MIN", "mmHg", "", "", "", "", "", "", "", "", "", "WEEK 12", "26-MAR-2014", "26-MAR-2014", "", "26-MAR-2014", "26-MAR-2014", "", "", "AFTER STANDING FOR 3 MINUTES", "AFTER STANDING FOR 3 MINUTES", "AFTER STANDING FOR 3 MINUTES", 817, 817, 817]
["CDISCPILOT01", "701", "1097", "SUPINE", "SUPINE", "SUPINE", "70", "", "67", "132", "98.1", "175.0", "mmHg", "", "BEATS/MIN", "mmHg", "F", "LB", "", "", "", "", "", "", "ORAL CAVITY", "WEEK 16", "23-APR-2014", "23-APR-2014", "", "23-APR-2014", "23-APR-2014", "23-APR-2014", "23-APR-2014", "AFTER LYING DOWN FOR 5 MINUTES", "AFTER LYING DOWN FOR 5 MINUTES", "AFTER LYING DOWN FOR 5 MINUTES", 815, 815, 815]
["CDISCPILOT01", "701", "1097", "STANDING", "STANDING", "STANDING", "76", "", "74", "138", "", "", "mmHg", "", "BEATS/MIN", "mmHg", "", "", "", "", "", "", "", "", "", "WEEK 16", "23-APR-2014", "23-APR-2014", "", "23-APR-2014", "23-APR-2014", "", "", "AFTER STANDING FOR 1 MINUTE", "AFTER STANDING FOR 1 MINUTE", "AFTER STANDING FOR 1 MINUTE", 816, 816, 816]
["CDISCPILOT01", "701", "1097", "STANDING", "STANDING", "STANDING", "74", "", "72", "139", "", "", "mmHg", "", "BEATS/MIN", "mmHg", "", "", "", "", "", "", "", "", "", "WEEK 16", "23-APR-2014", "23-APR-2014", "", "23-APR-2014", "23-APR-2014", "", "", "AFTER STANDING FOR 3 MINUTES", "AFTER STANDING FOR 3 MINUTES", "AFTER STANDING FOR 3 MINUTES", 817, 817, 817]
["CDISCPILOT01", "701", "1097", "SUPINE", "SUPINE", "SUPINE", "67", "", "61", "121", "97.6", "176.0", "mmHg", "", "BEATS/MIN", "mmHg", "F", "LB", "", "", "", "", "", "", "ORAL CAVITY", "WEEK 20", "21-MAY-2014", "21-MAY-2014", "", "21-MAY-2014", "21-MAY-2014", "21-MAY-2014", "21-MAY-2014", "AFTER LYING DOWN FOR 5 MINUTES", "AFTER LYING DOWN FOR 5 MINUTES", "AFTER LYING DOWN FOR 5 MINUTES", 815, 815, 815]
["CDISCPILOT01", "701", "1097", "STANDING", "STANDING", "STANDING", "58", "", "70", "112", "", "", "mmHg", "", "BEATS/MIN", "mmHg", "", "", "", "", "", "", "", "", "", "WEEK 20", "21-MAY-2014", "21-MAY-2014", "", "21-MAY-2014", "21-MAY-2014", "", "", "AFTER STANDING FOR 1 MINUTE", "AFTER STANDING FOR 1 MINUTE", "AFTER STANDING FOR 1 MINUTE", 816, 816, 816]
["CDISCPILOT01", "701", "1097", "STANDING", "STANDING", "STANDING", "61", "", "67", "115", "", "", "mmHg", "", "BEATS/MIN", "mmHg", "", "", "", "", "", "", "", "", "", "WEEK 20", "21-MAY-2014", "21-MAY-2014", "", "21-MAY-2014", "21-MAY-2014", "", "", "AFTER STANDING FOR 3 MINUTES", "AFTER STANDING FOR 3 MINUTES", "AFTER STANDING FOR 3 MINUTES", 817, 817, 817]
["CDISCPILOT01", "701", "1097", "SUPINE", "SUPINE", "SUPINE", "83", "", "65", "137", "98.6", "177.0", "mmHg", "", "BEATS/MIN", "mmHg", "F", "LB", "", "", "", "", "", "", "ORAL CAVITY", "WEEK 24", "18-JUN-2014", "18-JUN-2014", "", "18-JUN-2014", "18-JUN-2014", "18-JUN-2014", "18-JUN-2014", "AFTER LYING DOWN FOR 5 MINUTES", "AFTER LYING DOWN FOR 5 MINUTES", "AFTER LYING DOWN FOR 5 MINUTES", 815, 815, 815]
["CDISCPILOT01", "701", "1097", "STANDING", "STANDING", "STANDING", "84", "", "74", "131", "", "", "mmHg", "", "BEATS/MIN", "mmHg", "", "", "", "", "", "", "", "", "", "WEEK 24", "18-JUN-2014", "18-JUN-2014", "", "18-JUN-2014", "18-JUN-2014", "", "", "AFTER STANDING FOR 1 MINUTE", "AFTER STANDING FOR 1 MINUTE", "AFTER STANDING FOR 1 MINUTE", 816, 816, 816]
["CDISCPILOT01", "701", "1097", "STANDING", "STANDING", "STANDING", "84", "", "72", "130", "", "", "mmHg", "", "BEATS/MIN", "mmHg", "", "", "", "", "", "", "", "", "", "WEEK 24", "18-JUN-2014", "18-JUN-2014", "", "18-JUN-2014", "18-JUN-2014", "", "", "AFTER STANDING FOR 3 MINUTES", "AFTER STANDING FOR 3 MINUTES", "AFTER STANDING FOR 3 MINUTES", 817, 817, 817]
["CDISCPILOT01", "701", "1097", "SUPINE", "SUPINE", "SUPINE", "72", "", "58", "123", "97.8", "173.0", "mmHg", "", "BEATS/MIN", "mmHg", "F", "LB", "", "", "", "", "", "", "ORAL CAVITY", "WEEK 26", "09-JUL-2014", "09-JUL-2014", "", "09-JUL-2014", "09-JUL-2014", "09-JUL-2014", "09-JUL-2014", "AFTER LYING DOWN FOR 5 MINUTES", "AFTER LYING DOWN FOR 5 MINUTES", "AFTER LYING DOWN FOR 5 MINUTES", 815, 815, 815]
["CDISCPILOT01", "701", "1097", "STANDING", "STANDING", "STANDING", "78", "", "76", "132", "", "", "mmHg", "", "BEATS/MIN", "mmHg", "", "", "", "", "", "", "", "", "", "WEEK 26", "09-JUL-2014", "09-JUL-2014", "", "09-JUL-2014", "09-JUL-2014", "", "", "AFTER STANDING FOR 1 MINUTE", "AFTER STANDING FOR 1 MINUTE", "AFTER STANDING FOR 1 MINUTE", 816, 816, 816]
["CDISCPILOT01", "701", "1097", "STANDING", "STANDING", "STANDING", "77", "", "66", "131", "", "", "mmHg", "", "BEATS/MIN", "mmHg", "", "", "", "", "", "", "", "", "", "WEEK 26", "09-JUL-2014", "09-JUL-2014", "", "09-JUL-2014", "09-JUL-2014", "", "", "AFTER STANDING FOR 3 MINUTES", "AFTER STANDING FOR 3 MINUTES", "AFTER STANDING FOR 3 MINUTES", 817, 817, 817]
["CDISCPILOT01", "701", "1111", "SUPINE", "SUPINE", "SUPINE", "74", "062.3", "80", "137", "98.6", "133.0", "mmHg", "IN", "BEATS/MIN", "mmHg", "F", "LB", "", "", "", "", "", "", "ORAL CAVITY", "SCREENING 1", "25-AUG-2012", "25-AUG-2012", "25-AUG-2012", "25-AUG-2012", "25-AUG-2012", "25-AUG-2012", "25-AUG-2012", "AFTER LYING DOWN FOR 5 MINUTES", "AFTER LYING DOWN FOR 5 MINUTES", "AFTER LYING DOWN FOR 5 MINUTES", 815, 815, 815]
["CDISCPILOT01", "701", "1111", "STANDING", "STANDING", "STANDING", "75", "", "85", "129", "", "", "mmHg", "", "BEATS/MIN", "mmHg", "", "", "", "", "", "", "", "", "", "SCREENING 1", "25-AUG-2012", "25-AUG-2012", "", "25-AUG-2012", "25-AUG-2012", "", "", "AFTER STANDING FOR 1 MINUTE", "AFTER STANDING FOR 1 MINUTE", "AFTER STANDING FOR 1 MINUTE", 816, 816, 816]
["CDISCPILOT01", "701", "1111", "STANDING", "STANDING", "STANDING", "65", "", "84", "122", "", "", "mmHg", "", "BEATS/MIN", "mmHg", "", "", "", "", "", "", "", "", "", "SCREENING 1", "25-AUG-2012", "25-AUG-2012", "", "25-AUG-2012", "25-AUG-2012", "", "", "AFTER STANDING FOR 3 MINUTES", "AFTER STANDING FOR 3 MINUTES", "AFTER STANDING FOR 3 MINUTES", 817, 817, 817]
["CDISCPILOT01", "701", "1111", "SUPINE", "SUPINE", "SUPINE", "63", "", "84", "137", "97.9", "", "mmHg", "", "BEATS/MIN", "mmHg", "F", "", "", "", "", "", "", "", "ORAL CAVITY", "SCREENING 2", "05-SEP-2012", "05-SEP-2012", "", "05-SEP-2012", "05-SEP-2012", "05-SEP-2012", "", "AFTER LYING DOWN FOR 5 MINUTES", "AFTER LYING DOWN FOR 5 MINUTES", "AFTER LYING DOWN FOR 5 MINUTES", 815, 815, 815]
["CDISCPILOT01", "701", "1111", "STANDING", "STANDING", "STANDING", "74", "", "94", "121", "", "", "mmHg", "", "BEATS/MIN", "mmHg", "", "", "", "", "", "", "", "", "", "SCREENING 2", "05-SEP-2012", "05-SEP-2012", "", "05-SEP-2012", "05-SEP-2012", "", "", "AFTER STANDING FOR 1 MINUTE", "AFTER STANDING FOR 1 MINUTE", "AFTER STANDING FOR 1 MINUTE", 816, 816, 816]
["CDISCPILOT01", "701", "1111", "STANDING", "STANDING", "STANDING", "74", "", "89", "129", "", "", "mmHg", "", "BEATS/MIN", "mmHg", "", "", "", "", "", "", "", "", "", "SCREENING 2", "05-SEP-2012", "05-SEP-2012", "", "05-SEP-2012", "05-SEP-2012", "", "", "AFTER STANDING FOR 3 MINUTES", "AFTER STANDING FOR 3 MINUTES", "AFTER STANDING FOR 3 MINUTES", 817, 817, 817]
["CDISCPILOT01", "701", "1111", "SUPINE", "SUPINE", "SUPINE", "66", "", "78", "129", "98.1", "132.0", "mmHg", "", "BEATS/MIN", "mmHg", "F", "LB", "", "", "", "", "", "", "ORAL CAVITY", "BASELINE", "07-SEP-2012", "07-SEP-2012", "", "07-SEP-2012", "07-SEP-2012", "07-SEP-2012", "07-SEP-2012", "AFTER LYING DOWN FOR 5 MINUTES", "AFTER LYING DOWN FOR 5 MINUTES", "AFTER LYING DOWN FOR 5 MINUTES", 815, 815, 815]
["CDISCPILOT01", "701", "1111", "STANDING", "STANDING", "STANDING", "78", "", "85", "136", "", "", "mmHg", "", "BEATS/MIN", "mmHg", "", "", "", "", "", "", "", "", "", "BASELINE", "07-SEP-2012", "07-SEP-2012", "", "07-SEP-2012", "07-SEP-2012", "", "", "AFTER STANDING FOR 1 MINUTE", "AFTER STANDING FOR 1 MINUTE", "AFTER STANDING FOR 1 MINUTE", 816, 816, 816]
["CDISCPILOT01", "701", "1111", "STANDING", "STANDING", "STANDING", "71", "", "85", "135", "", "", "mmHg", "", "BEATS/MIN", "mmHg", "", "", "", "", "", "", "", "", "", "BASELINE", "07-SEP-2012", "07-SEP-2012", "", "07-SEP-2012", "07-SEP-2012", "", "", "AFTER STANDING FOR 3 MINUTES", "AFTER STANDING FOR 3 MINUTES", "AFTER STANDING FOR 3 MINUTES", 817, 817, 817]
["CDISCPILOT01", "701", "1111", "SUPINE", "SUPINE", "SUPINE", "60", "", "85", "125", "098.8", "134.0", "mmHg", "", "BEATS/MIN", "mmHg", "F", "LB", "", "", "", "", "", "", "ORAL CAVITY", "WEEK 2", "17-SEP-2012", "17-SEP-2012", "", "17-SEP-2012", "17-SEP-2012", "17-SEP-2012", "17-SEP-2012", "AFTER LYING DOWN FOR 5 MINUTES", "AFTER LYING DOWN FOR 5 MINUTES", "AFTER LYING DOWN FOR 5 MINUTES", 815, 815, 815]
["CDISCPILOT01", "701", "1111", "STANDING", "STANDING", "STANDING", "66", "", "89", "112", "", "", "mmHg", "", "BEATS/MIN", "mmHg", "", "", "", "", "", "", "", "", "", "WEEK 2", "17-SEP-2012", "17-SEP-2012", "", "17-SEP-2012", "17-SEP-2012", "", "", "AFTER STANDING FOR 1 MINUTE", "AFTER STANDING FOR 1 MINUTE", "AFTER STANDING FOR 1 MINUTE", 816, 816, 816]
["CDISCPILOT01", "701", "1111", "STANDING", "STANDING", "STANDING", "60", "", "84", "110", "", "", "mmHg", "", "BEATS/MIN", "mmHg", "", "", "", "", "", "", "", "", "", "WEEK 2", "17-SEP-2012", "17-SEP-2012", "", "17-SEP-2012", "17-SEP-2012", "", "", "AFTER STANDING FOR 3 MINUTES", "AFTER STANDING FOR 3 MINUTES", "AFTER STANDING FOR 3 MINUTES", 817, 817, 817]
["CDISCPILOT01", "701", "1111", "SUPINE", "SUPINE", "SUPINE", "64", "", "66", "138", "97.7", "", "mmHg", "", "BEATS/MIN", "mmHg", "F", "", "", "", "", "", "", "", "ORAL CAVITY", "RETRIEVAL", "22-FEB-2013", "22-FEB-2013", "", "22-FEB-2013", "22-FEB-2013", "22-FEB-2013", "", "AFTER LYING DOWN FOR 5 MINUTES", "AFTER LYING DOWN FOR 5 MINUTES", "AFTER LYING DOWN FOR 5 MINUTES", 815, 815, 815]
["CDISCPILOT01", "701", "1111", "STANDING", "STANDING", "STANDING", "72", "", "79", "130", "", "", "mmHg", "", "BEATS/MIN", "mmHg", "", "", "", "", "", "", "", "", "", "RETRIEVAL", "22-FEB-2013", "22-FEB-2013", "", "22-FEB-2013", "22-FEB-2013", "", "", "AFTER STANDING FOR 1 MINUTE", "AFTER STANDING FOR 1 MINUTE", "AFTER STANDING FOR 1 MINUTE", 816, 816, 816]
["CDISCPILOT01", "701", "1111", "STANDING", "STANDING", "STANDING", "64", "", "74", "130", "", "", "mmHg", "", "BEATS/MIN", "mmHg", "", "", "", "", "", "", "", "", "", "RETRIEVAL", "22-FEB-2013", "22-FEB-2013", "", "22-FEB-2013", "22-FEB-2013", "", "", "AFTER STANDING FOR 3 MINUTES", "AFTER STANDING FOR 3 MINUTES", "AFTER STANDING FOR 3 MINUTES", 817, 817, 817]
["CDISCPILOT01", "701", "1115", "SUPINE", "SUPINE", "SUPINE", "71", "71.5", "51", "137", "97.4", "173.5", "mmHg", "IN", "BEATS/MIN", "mmHg", "F", "LB", "", "", "", "", "", "", "ORAL CAVITY", "SCREENING 1", "23-NOV-2012", "23-NOV-2012", "23-NOV-2012", "23-NOV-2012", "23-NOV-2012", "23-NOV-2012", "23-NOV-2012", "AFTER LYING DOWN FOR 5 MINUTES", "AFTER LYING DOWN FOR 5 MINUTES", "AFTER LYING DOWN FOR 5 MINUTES", 815, 815, 815]
["CDISCPILOT01", "701", "1115", "STANDING", "STANDING", "STANDING", "68", "", "63", "130", "", "", "mmHg", "", "BEATS/MIN", "mmHg", "", "", "", "", "", "", "", "", "", "SCREENING 1", "23-NOV-2012", "23-NOV-2012", "", "23-NOV-2012", "23-NOV-2012", "", "", "AFTER STANDING FOR 1 MINUTE", "AFTER STANDING FOR 1 MINUTE", "AFTER STANDING FOR 1 MINUTE", 816, 816, 816]
["CDISCPILOT01", "701", "1115", "STANDING", "STANDING", "STANDING", "69", "", "61", "131", "", "", "mmHg", "", "BEATS/MIN", "mmHg", "", "", "", "", "", "", "", "", "", "SCREENING 1", "23-NOV-2012", "23-NOV-2012", "", "23-NOV-2012", "23-NOV-2012", "", "", "AFTER STANDING FOR 3 MINUTES", "AFTER STANDING FOR 3 MINUTES", "AFTER STANDING FOR 3 MINUTES", 817, 817, 817]
["CDISCPILOT01", "701", "1115", "SUPINE", "SUPINE", "SUPINE", "71", "", "50", "137", "97.2", "", "mmHg", "", "BEATS/MIN", "mmHg", "F", "", "", "", "", "", "", "", "ORAL CAVITY", "SCREENING 2", "28-NOV-2012", "28-NOV-2012", "", "28-NOV-2012", "28-NOV-2012", "28-NOV-2012", "", "AFTER LYING DOWN FOR 5 MINUTES", "AFTER LYING DOWN FOR 5 MINUTES", "AFTER LYING DOWN FOR 5 MINUTES", 815, 815, 815]
["CDISCPILOT01", "701", "1115", "STANDING", "STANDING", "STANDING", "65", "", "58", "130", "", "", "mmHg", "", "BEATS/MIN", "mmHg", "", "", "", "", "", "", "", "", "", "SCREENING 2", "28-NOV-2012", "28-NOV-2012", "", "28-NOV-2012", "28-NOV-2012", "", "", "AFTER STANDING FOR 1 MINUTE", "AFTER STANDING FOR 1 MINUTE", "AFTER STANDING FOR 1 MINUTE", 816, 816, 816]
["CDISCPILOT01", "701", "1115", "STANDING", "STANDING", "STANDING", "68", "", "59", "115", "", "", "mmHg", "", "BEATS/MIN", "mmHg", "", "", "", "", "", "", "", "", "", "SCREENING 2", "28-NOV-2012", "28-NOV-2012", "", "28-NOV-2012", "28-NOV-2012", "", "", "AFTER STANDING FOR 3 MINUTES", "AFTER STANDING FOR 3 MINUTES", "AFTER STANDING FOR 3 MINUTES", 817, 817, 817]
["CDISCPILOT01", "701", "1115", "SUPINE", "SUPINE", "SUPINE", "83", "", "50", "130", "98.0", "174.0", "mmHg", "", "BEATS/MIN", "mmHg", "F", "LB", "", "", "", "", "", "", "ORAL CAVITY", "BASELINE", "30-NOV-2012", "30-NOV-2012", "", "30-NOV-2012", "30-NOV-2012", "30-NOV-2012", "30-NOV-2012", "AFTER LYING DOWN FOR 5 MINUTES", "AFTER LYING DOWN FOR 5 MINUTES", "AFTER LYING DOWN FOR 5 MINUTES", 815, 815, 815]
["CDISCPILOT01", "701", "1115", "STANDING", "STANDING", "STANDING", "67", "", "62", "106", "", "", "mmHg", "", "BEATS/MIN", "mmHg", "", "", "", "", "", "", "", "", "", "BASELINE", "30-NOV-2012", "30-NOV-2012", "", "30-NOV-2012", "30-NOV-2012", "", "", "AFTER STANDING FOR 1 MINUTE", "AFTER STANDING FOR 1 MINUTE", "AFTER STANDING FOR 1 MINUTE", 816, 816, 816]
["CDISCPILOT01", "701", "1115", "STANDING", "STANDING", "STANDING", "69", "", "60", "110", "", "", "mmHg", "", "BEATS/MIN", "mmHg", "", "", "", "", "", "", "", "", "", "BASELINE", "30-NOV-2012", "30-NOV-2012", "", "30-NOV-2012", "30-NOV-2012", "", "", "AFTER STANDING FOR 3 MINUTES", "AFTER STANDING FOR 3 MINUTES", "AFTER STANDING FOR 3 MINUTES", 817, 817, 817]
["CDISCPILOT01", "701", "1115", "SUPINE", "SUPINE", "SUPINE", "78", "", "52", "144", "97.4", "", "mmHg", "", "BEATS/MIN", "mmHg", "F", "", "", "", "", "", "", "", "ORAL CAVITY", "AMBUL ECG PLACEMENT", "12-DEC-2012", "12-DEC-2012", "", "12-DEC-2012", "12-DEC-2012", "12-DEC-2012", "", "AFTER LYING DOWN FOR 5 MINUTES", "AFTER LYING DOWN FOR 5 MINUTES", "AFTER LYING DOWN FOR 5 MINUTES", 815, 815, 815]
["CDISCPILOT01", "701", "1115", "STANDING", "STANDING", "STANDING", "70", "", "64", "120", "", "", "mmHg", "", "BEATS/MIN", "mmHg", "", "", "", "", "", "", "", "", "", "AMBUL ECG PLACEMENT", "12-DEC-2012", "12-DEC-2012", "", "12-DEC-2012", "12-DEC-2012", "", "", "AFTER STANDING FOR 1 MINUTE", "AFTER STANDING FOR 1 MINUTE", "AFTER STANDING FOR 1 MINUTE", 816, 816, 816]
["CDISCPILOT01", "701", "1115", "STANDING", "STANDING", "STANDING", "72", "", "65", "116", "", "", "mmHg", "", "BEATS/MIN", "mmHg", "", "", "", "", "", "", "", "", "", "AMBUL ECG PLACEMENT", "12-DEC-2012", "12-DEC-2012", "", "12-DEC-2012", "12-DEC-2012", "", "", "AFTER STANDING FOR 3 MINUTES", "AFTER STANDING FOR 3 MINUTES", "AFTER STANDING FOR 3 MINUTES", 817, 817, 817]
["CDISCPILOT01", "701", "1115", "SUPINE", "SUPINE", "SUPINE", "79", "", "53", "122", "98.0", "174.0", "mmHg", "", "BEATS/MIN", "mmHg", "F", "LB", "", "", "", "", "", "", "ORAL CAVITY", "WEEK 2", "13-DEC-2012", "13-DEC-2012", "", "13-DEC-2012", "13-DEC-2012", "13-DEC-2012", "13-DEC-2012", "AFTER LYING DOWN FOR 5 MINUTES", "AFTER LYING DOWN FOR 5 MINUTES", "AFTER LYING DOWN FOR 5 MINUTES", 815, 815, 815]
["CDISCPILOT01", "701", "1115", "STANDING", "STANDING", "STANDING", "68", "", "70", "119", "", "", "mmHg", "", "BEATS/MIN", "mmHg", "", "", "", "", "", "", "", "", "", "WEEK 2", "13-DEC-2012", "13-DEC-2012", "", "13-DEC-2012", "13-DEC-2012", "", "", "AFTER STANDING FOR 1 MINUTE", "AFTER STANDING FOR 1 MINUTE", "AFTER STANDING FOR 1 MINUTE", 816, 816, 816]
["CDISCPILOT01", "701", "1115", "STANDING", "STANDING", "STANDING", "69", "", "65", "100", "", "", "mmHg", "", "BEATS/MIN", "mmHg", "", "", "", "", "", "", "", "", "", "WEEK 2", "13-DEC-2012", "13-DEC-2012", "", "13-DEC-2012", "13-DEC-2012", "", "", "AFTER STANDING FOR 3 MINUTES", "AFTER STANDING FOR 3 MINUTES", "AFTER STANDING FOR 3 MINUTES", 817, 817, 817]
["CDISCPILOT01", "701", "1115", "SUPINE", "SUPINE", "SUPINE", "68", "", "51", "115", "97.7", "173.0", "mmHg", "", "BEATS/MIN", "mmHg", "F", "LB", "", "", "", "", "", "", "ORAL CAVITY", "WEEK 4", "26-DEC-2012", "26-DEC-2012", "", "26-DEC-2012", "26-DEC-2012", "26-DEC-2012", "26-DEC-2012", "AFTER LYING DOWN FOR 5 MINUTES", "AFTER LYING DOWN FOR 5 MINUTES", "AFTER LYING DOWN FOR 5 MINUTES", 815, 815, 815]
["CDISCPILOT01", "701", "1115", "STANDING", "STANDING", "STANDING", "53", "", "57", "98", "", "", "mmHg", "", "BEATS/MIN", "mmHg", "", "", "", "", "", "", "", "", "", "WEEK 4", "26-DEC-2012", "26-DEC-2012", "", "26-DEC-2012", "26-DEC-2012", "", "", "AFTER STANDING FOR 1 MINUTE", "AFTER STANDING FOR 1 MINUTE", "AFTER STANDING FOR 1 MINUTE", 816, 816, 816]
["CDISCPILOT01", "701", "1115", "STANDING", "STANDING", "STANDING", "56", "", "64", "95", "", "", "mmHg", "", "BEATS/MIN", "mmHg", "", "", "", "", "", "", "", "", "", "WEEK 4", "26-DEC-2012", "26-DEC-2012", "", "26-DEC-2012", "26-DEC-2012", "", "", "AFTER STANDING FOR 3 MINUTES", "AFTER STANDING FOR 3 MINUTES", "AFTER STANDING FOR 3 MINUTES", 817, 817, 817]
["CDISCPILOT01", "701", "1115", "SUPINE", "SUPINE", "SUPINE", "69", "", "50", "122", "97.3", "", "mmHg", "", "BEATS/MIN", "mmHg", "F", "", "", "", "", "", "", "", "ORAL CAVITY", "AMBUL ECG REMOVAL", "28-DEC-2012", "28-DEC-2012", "", "28-DEC-2012", "28-DEC-2012", "28-DEC-2012", "", "AFTER LYING DOWN FOR 5 MINUTES", "AFTER LYING DOWN FOR 5 MINUTES", "AFTER LYING DOWN FOR 5 MINUTES", 815, 815, 815]
["CDISCPILOT01", "701", "1115", "STANDING", "STANDING", "STANDING", "61", "", "63", "96", "", "", "mmHg", "", "BEATS/MIN", "mmHg", "", "", "", "", "", "", "", "", "", "AMBUL ECG REMOVAL", "28-DEC-2012", "28-DEC-2012", "", "28-DEC-2012", "28-DEC-2012", "", "", "AFTER STANDING FOR 1 MINUTE", "AFTER STANDING FOR 1 MINUTE", "AFTER STANDING FOR 1 MINUTE", 816, 816, 816]
["CDISCPILOT01", "701", "1115", "STANDING", "STANDING", "STANDING", "50", "", "60", "99", "", "", "mmHg", "", "BEATS/MIN", "mmHg", "", "", "", "", "", "", "", "", "", "AMBUL ECG REMOVAL", "28-DEC-2012", "28-DEC-2012", "", "28-DEC-2012", "28-DEC-2012", "", "", "AFTER STANDING FOR 3 MINUTES", "AFTER STANDING FOR 3 MINUTES", "AFTER STANDING FOR 3 MINUTES", 817, 817, 817]
["CDISCPILOT01", "701", "1115", "SUPINE", "SUPINE", "SUPINE", "77", "", "52", "131", "97.6", "173.0", "mmHg", "", "BEATS/MIN", "mmHg", "F", "LB", "", "", "", "", "", "", "ORAL CAVITY", "WEEK 6", "10-JAN-2013", "10-JAN-2013", "", "10-JAN-2013", "10-JAN-2013", "10-JAN-2013", "10-JAN-2013", "AFTER LYING DOWN FOR 5 MINUTES", "AFTER LYING DOWN FOR 5 MINUTES", "AFTER LYING DOWN FOR 5 MINUTES", 815, 815, 815]
["CDISCPILOT01", "701", "1115", "STANDING", "STANDING", "STANDING", "71", "", "62", "107", "", "", "mmHg", "", "BEATS/MIN", "mmHg", "", "", "", "", "", "", "", "", "", "WEEK 6", "10-JAN-2013", "10-JAN-2013", "", "10-JAN-2013", "10-JAN-2013", "", "", "AFTER STANDING FOR 1 MINUTE", "AFTER STANDING FOR 1 MINUTE", "AFTER STANDING FOR 1 MINUTE", 816, 816, 816]
["CDISCPILOT01", "701", "1115", "STANDING", "STANDING", "STANDING", "69", "", "62", "104", "", "", "mmHg", "", "BEATS/MIN", "mmHg", "", "", "", "", "", "", "", "", "", "WEEK 6", "10-JAN-2013", "10-JAN-2013", "", "10-JAN-2013", "10-JAN-2013", "", "", "AFTER STANDING FOR 3 MINUTES", "AFTER STANDING FOR 3 MINUTES", "AFTER STANDING FOR 3 MINUTES", 817, 817, 817]
["CDISCPILOT01", "701", "1115", "SUPINE", "SUPINE", "SUPINE", "76", "", "50", "123", "97.6", "173.0", "mmHg", "", "BEATS/MIN", "mmHg", "F", "LB", "", "", "", "", "", "", "ORAL CAVITY", "WEEK 8", "23-JAN-2013", "23-JAN-2013", "", "23-JAN-2013", "23-JAN-2013", "23-JAN-2013", "23-JAN-2013", "AFTER LYING DOWN FOR 5 MINUTES", "AFTER LYING DOWN FOR 5 MINUTES", "AFTER LYING DOWN FOR 5 MINUTES", 815, 815, 815]
["CDISCPILOT01", "701", "1115", "STANDING", "STANDING", "STANDING", "52", "", "52", "113", "", "", "mmHg", "", "BEATS/MIN", "mmHg", "", "", "", "", "", "", "", "", "", "WEEK 8", "23-JAN-2013", "23-JAN-2013", "", "23-JAN-2013", "23-JAN-2013", "", "", "AFTER STANDING FOR 1 MINUTE", "AFTER STANDING FOR 1 MINUTE", "AFTER STANDING FOR 1 MINUTE", 816, 816, 816]
["CDISCPILOT01", "701", "1115", "STANDING", "STANDING", "STANDING", "60", "", "54", "98", "", "", "mmHg", "", "BEATS/MIN", "mmHg", "", "", "", "", "", "", "", "", "", "WEEK 8", "23-JAN-2013", "23-JAN-2013", "", "23-JAN-2013", "23-JAN-2013", "", "", "AFTER STANDING FOR 3 MINUTES", "AFTER STANDING FOR 3 MINUTES", "AFTER STANDING FOR 3 MINUTES", 817, 817, 817]
["CDISCPILOT01", "701", "1115", "SUPINE", "SUPINE", "SUPINE", "68", "", "79", "99", "97.4", "", "mmHg", "", "BEATS/MIN", "mmHg", "F", "", "", "", "", "", "", "", "ORAL CAVITY", "RETRIEVAL", "20-MAY-2013", "20-MAY-2013", "", "20-MAY-2013", "20-MAY-2013", "20-MAY-2013", "", "AFTER LYING DOWN FOR 5 MINUTES", "AFTER LYING DOWN FOR 5 MINUTES", "AFTER LYING DOWN FOR 5 MINUTES", 815, 815, 815]
["CDISCPILOT01", "701", "1115", "STANDING", "STANDING", "STANDING", "72", "", "98", "99", "", "", "mmHg", "", "BEATS/MIN", "mmHg", "", "", "", "", "", "", "", "", "", "RETRIEVAL", "20-MAY-2013", "20-MAY-2013", "", "20-MAY-2013", "20-MAY-2013", "", "", "AFTER STANDING FOR 1 MINUTE", "AFTER STANDING FOR 1 MINUTE", "AFTER STANDING FOR 1 MINUTE", 816, 816, 816]
["CDISCPILOT01", "701", "1115", "STANDING", "STANDING", "STANDING", "68", "", "94", "99", "", "", "mmHg", "", "BEATS/MIN", "mmHg", "", "", "", "", "", "", "", "", "", "RETRIEVAL", "20-MAY-2013", "20-MAY-2013", "", "20-MAY-2013", "20-MAY-2013", "", "", "AFTER STANDING FOR 3 MINUTES", "AFTER STANDING FOR 3 MINUTES", "AFTER STANDING FOR 3 MINUTES", 817, 817, 817]
["CDISCPILOT01", "701", "1118", "SUPINE", "SUPINE", "SUPINE", "71", "71.0", "65", "122", "98.4", "158.0", "mmHg", "IN", "BEATS/MIN", "mmHg", "F", "LB", "", "", "", "", "", "", "ORAL CAVITY", "SCREENING 1", "27-FEB-2014", "27-FEB-2014", "27-FEB-2014", "27-FEB-2014", "27-FEB-2014", "27-FEB-2014", "27-FEB-2014", "AFTER LYING DOWN FOR 5 MINUTES", "AFTER LYING DOWN FOR 5 MINUTES", "AFTER LYING DOWN FOR 5 MINUTES", 815, 815, 815]
["CDISCPILOT01", "701", "1118", "STANDING", "STANDING", "STANDING", "59", "", "76", "106", "", "", "mmHg", "", "BEATS/MIN", "mmHg", "", "", "", "", "", "", "", "", "", "SCREENING 1", "27-FEB-2014", "27-FEB-2014", "", "27-FEB-2014", "27-FEB-2014", "", "", "AFTER STANDING FOR 1 MINUTE", "AFTER STANDING FOR 1 MINUTE", "AFTER STANDING FOR 1 MINUTE", 816, 816, 816]
["CDISCPILOT01", "701", "1118", "STANDING", "STANDING", "STANDING", "64", "", "76", "107", "", "", "mmHg", "", "BEATS/MIN", "mmHg", "", "", "", "", "", "", "", "", "", "SCREENING 1", "27-FEB-2014", "27-FEB-2014", "", "27-FEB-2014", "27-FEB-2014", "", "", "AFTER STANDING FOR 3 MINUTES", "AFTER STANDING FOR 3 MINUTES", "AFTER STANDING FOR 3 MINUTES", 817, 817, 817]
["CDISCPILOT01", "701", "1118", "SUPINE", "SUPINE", "SUPINE", "84", "", "60", "138", "97.5", "", "mmHg", "", "BEATS/MIN", "mmHg", "F", "", "", "", "", "", "", "", "ORAL CAVITY", "SCREENING 2", "10-MAR-2014", "10-MAR-2014", "", "10-MAR-2014", "10-MAR-2014", "10-MAR-2014", "", "AFTER LYING DOWN FOR 5 MINUTES", "AFTER LYING DOWN FOR 5 MINUTES", "AFTER LYING DOWN FOR 5 MINUTES", 815, 815, 815]
["CDISCPILOT01", "701", "1118", "STANDING", "STANDING", "STANDING", "75", "", "68", "137", "", "", "mmHg", "", "BEATS/MIN", "mmHg", "", "", "", "", "", "", "", "", "", "SCREENING 2", "10-MAR-2014", "10-MAR-2014", "", "10-MAR-2014", "10-MAR-2014", "", "", "AFTER STANDING FOR 1 MINUTE", "AFTER STANDING FOR 1 MINUTE", "AFTER STANDING FOR 1 MINUTE", 816, 816, 816]
["CDISCPILOT01", "701", "1118", "STANDING", "STANDING", "STANDING", "84", "", "66", "138", "", "", "mmHg", "", "BEATS/MIN", "mmHg", "", "", "", "", "", "", "", "", "", "SCREENING 2", "10-MAR-2014", "10-MAR-2014", "", "10-MAR-2014", "10-MAR-2014", "", "", "AFTER STANDING FOR 3 MINUTES", "AFTER STANDING FOR 3 MINUTES", "AFTER STANDING FOR 3 MINUTES", 817, 817, 817]
["CDISCPILOT01", "701", "1118", "SUPINE", "SUPINE", "SUPINE", "84", "", "62", "137", "97.5", "157.0", "mmHg", "", "BEATS/MIN", "mmHg", "F", "LB", "", "", "", "", "", "", "ORAL CAVITY", "BASELINE", "12-MAR-2014", "12-MAR-2014", "", "12-MAR-2014", "12-MAR-2014", "12-MAR-2014", "12-MAR-2014", "AFTER LYING DOWN FOR 5 MINUTES", "AFTER LYING DOWN FOR 5 MINUTES", "AFTER LYING DOWN FOR 5 MINUTES", 815, 815, 815]
["CDISCPILOT01", "701", "1118", "STANDING", "STANDING", "STANDING", "79", "", "70", "129", "", "", "mmHg", "", "BEATS/MIN", "mmHg", "", "", "", "", "", "", "", "", "", "BASELINE", "12-MAR-2014", "12-MAR-2014", "", "12-MAR-2014", "12-MAR-2014", "", "", "AFTER STANDING FOR 1 MINUTE", "AFTER STANDING FOR 1 MINUTE", "AFTER STANDING FOR 1 MINUTE", 816, 816, 816]
["CDISCPILOT01", "701", "1118", "STANDING", "STANDING", "STANDING", "84", "", "70", "123", "", "", "mmHg", "", "BEATS/MIN", "mmHg", "", "", "", "", "", "", "", "", "", "BASELINE", "12-MAR-2014", "12-MAR-2014", "", "12-MAR-2014", "12-MAR-2014", "", "", "AFTER STANDING FOR 3 MINUTES", "AFTER STANDING FOR 3 MINUTES", "AFTER STANDING FOR 3 MINUTES", 817, 817, 817]
["CDISCPILOT01", "701", "1118", "SUPINE", "SUPINE", "SUPINE", "76", "", "59", "131", "97.6", "", "mmHg", "", "BEATS/MIN", "mmHg", "F", "", "", "", "", "", "", "", "ORAL CAVITY", "AMBUL ECG PLACEMENT", "25-MAR-2014", "25-MAR-2014", "", "25-MAR-2014", "25-MAR-2014", "25-MAR-2014", "", "AFTER LYING DOWN FOR 5 MINUTES", "AFTER LYING DOWN FOR 5 MINUTES", "AFTER LYING DOWN FOR 5 MINUTES", 815, 815, 815]
["CDISCPILOT01", "701", "1118", "STANDING", "STANDING", "STANDING", "79", "", "72", "126", "", "", "mmHg", "", "BEATS/MIN", "mmHg", "", "", "", "", "", "", "", "", "", "AMBUL ECG PLACEMENT", "25-MAR-2014", "25-MAR-2014", "", "25-MAR-2014", "25-MAR-2014", "", "", "AFTER STANDING FOR 1 MINUTE", "AFTER STANDING FOR 1 MINUTE", "AFTER STANDING FOR 1 MINUTE", 816, 816, 816]
["CDISCPILOT01", "701", "1118", "STANDING", "STANDING", "STANDING", "85", "", "68", "138", "", "", "mmHg", "", "BEATS/MIN", "mmHg", "", "", "", "", "", "", "", "", "", "AMBUL ECG PLACEMENT", "25-MAR-2014", "25-MAR-2014", "", "25-MAR-2014", "25-MAR-2014", "", "", "AFTER STANDING FOR 3 MINUTES", "AFTER STANDING FOR 3 MINUTES", "AFTER STANDING FOR 3 MINUTES", 817, 817, 817]
["CDISCPILOT01", "701", "1118", "SUPINE", "SUPINE", "SUPINE", "82", "", "62", "129", "98.1", "157.0", "mmHg", "", "BEATS/MIN", "mmHg", "F", "LB", "", "", "", "", "", "", "ORAL CAVITY", "WEEK 2", "26-MAR-2014", "26-MAR-2014", "", "26-MAR-2014", "26-MAR-2014", "26-MAR-2014", "26-MAR-2014", "AFTER LYING DOWN FOR 5 MINUTES", "AFTER LYING DOWN FOR 5 MINUTES", "AFTER LYING DOWN FOR 5 MINUTES", 815, 815, 815]
["CDISCPILOT01", "701", "1118", "STANDING", "STANDING", "STANDING", "69", "", "73", "127", "", "", "mmHg", "", "BEATS/MIN", "mmHg", "", "", "", "", "", "", "", "", "", "WEEK 2", "26-MAR-2014", "26-MAR-2014", "", "26-MAR-2014", "26-MAR-2014", "", "", "AFTER STANDING FOR 1 MINUTE", "AFTER STANDING FOR 1 MINUTE", "AFTER STANDING FOR 1 MINUTE", 816, 816, 816]
["CDISCPILOT01", "701", "1118", "STANDING", "STANDING", "STANDING", "73", "", "68", "131", "", "", "mmHg", "", "BEATS/MIN", "mmHg", "", "", "", "", "", "", "", "", "", "WEEK 2", "26-MAR-2014", "26-MAR-2014", "", "26-MAR-2014", "26-MAR-2014", "", "", "AFTER STANDING FOR 3 MINUTES", "AFTER STANDING FOR 3 MINUTES", "AFTER STANDING FOR 3 MINUTES", 817, 817, 817]
["CDISCPILOT01", "701", "1118", "SUPINE", "SUPINE", "SUPINE", "75", "", "64", "130", "98.3", "157.0", "mmHg", "", "BEATS/MIN", "mmHg", "F", "LB", "", "", "", "", "", "", "ORAL CAVITY", "WEEK 4", "09-APR-2014", "09-APR-2014", "", "09-APR-2014", "09-APR-2014", "09-APR-2014", "09-APR-2014", "AFTER LYING DOWN FOR 5 MINUTES", "AFTER LYING DOWN FOR 5 MINUTES", "AFTER LYING DOWN FOR 5 MINUTES", 815, 815, 815]
["CDISCPILOT01", "701", "1118", "STANDING", "STANDING", "STANDING", "68", "", "72", "114", "", "", "mmHg", "", "BEATS/MIN", "mmHg", "", "", "", "", "", "", "", "", "", "WEEK 4", "09-APR-2014", "09-APR-2014", "", "09-APR-2014", "09-APR-2014", "", "", "AFTER STANDING FOR 1 MINUTE", "AFTER STANDING FOR 1 MINUTE", "AFTER STANDING FOR 1 MINUTE", 816, 816, 816]
["CDISCPILOT01", "701", "1118", "STANDING", "STANDING", "STANDING", "80", "", "81", "130", "", "", "mmHg", "", "BEATS/MIN", "mmHg", "", "", "", "", "", "", "", "", "", "WEEK 4", "09-APR-2014", "09-APR-2014", "", "09-APR-2014", "09-APR-2014", "", "", "AFTER STANDING FOR 3 MINUTES", "AFTER STANDING FOR 3 MINUTES", "AFTER STANDING FOR 3 MINUTES", 817, 817, 817]
["CDISCPILOT01", "701", "1118", "SUPINE", "SUPINE", "SUPINE", "75", "", "67", "130", "97.9", "", "mmHg", "", "BEATS/MIN", "mmHg", "F", "", "", "", "", "", "", "", "ORAL CAVITY", "AMBUL ECG REMOVAL", "11-APR-2014", "11-APR-2014", "", "11-APR-2014", "11-APR-2014", "11-APR-2014", "", "AFTER LYING DOWN FOR 5 MINUTES", "AFTER LYING DOWN FOR 5 MINUTES", "AFTER LYING DOWN FOR 5 MINUTES", 815, 815, 815]
["CDISCPILOT01", "701", "1118", "STANDING", "STANDING", "STANDING", "72", "", "81", "114", "", "", "mmHg", "", "BEATS/MIN", "mmHg", "", "", "", "", "", "", "", "", "", "AMBUL ECG REMOVAL", "11-APR-2014", "11-APR-2014", "", "11-APR-2014", "11-APR-2014", "", "", "AFTER STANDING FOR 1 MINUTE", "AFTER STANDING FOR 1 MINUTE", "AFTER STANDING FOR 1 MINUTE", 816, 816, 816]
["CDISCPILOT01", "701", "1118", "STANDING", "STANDING", "STANDING", "79", "", "84", "122", "", "", "mmHg", "", "BEATS/MIN", "mmHg", "", "", "", "", "", "", "", "", "", "AMBUL ECG REMOVAL", "11-APR-2014", "11-APR-2014", "", "11-APR-2014", "11-APR-2014", "", "", "AFTER STANDING FOR 3 MINUTES", "AFTER STANDING FOR 3 MINUTES", "AFTER STANDING FOR 3 MINUTES", 817, 817, 817]
["CDISCPILOT01", "701", "1118", "SUPINE", "SUPINE", "SUPINE", "62", "", "74", "129", "98.3", "157.0", "mmHg", "", "BEATS/MIN", "mmHg", "F", "LB", "", "", "", "", "", "", "ORAL CAVITY", "WEEK 6", "23-APR-2014", "23-APR-2014", "", "23-APR-2014", "23-APR-2014", "23-APR-2014", "23-APR-2014", "AFTER LYING DOWN FOR 5 MINUTES", "AFTER LYING DOWN FOR 5 MINUTES", "AFTER LYING DOWN FOR 5 MINUTES", 815, 815, 815]
["CDISCPILOT01", "701", "1118", "STANDING", "STANDING", "STANDING", "68", "", "77", "122", "", "", "mmHg", "", "BEATS/MIN", "mmHg", "", "", "", "", "", "", "", "", "", "WEEK 6", "23-APR-2014", "23-APR-2014", "", "23-APR-2014", "23-APR-2014", "", "", "AFTER STANDING FOR 1 MINUTE", "AFTER STANDING FOR 1 MINUTE", "AFTER STANDING FOR 1 MINUTE", 816, 816, 816]
["CDISCPILOT01", "701", "1118", "STANDING", "STANDING", "STANDING", "68", "", "79", "122", "", "", "mmHg", "", "BEATS/MIN", "mmHg", "", "", "", "", "", "", "", "", "", "WEEK 6", "23-APR-2014", "23-APR-2014", "", "23-APR-2014", "23-APR-2014", "", "", "AFTER STANDING FOR 3 MINUTES", "AFTER STANDING FOR 3 MINUTES", "AFTER STANDING FOR 3 MINUTES", 817, 817, 817]
["CDISCPILOT01", "701", "1118", "SUPINE", "SUPINE", "SUPINE", "67", "", "65", "126", "98.0", "160.0", "mmHg", "", "BEATS/MIN", "mmHg", "F", "LB", "", "", "", "", "", "", "ORAL CAVITY", "WEEK 8", "08-MAY-2014", "08-MAY-2014", "", "08-MAY-2014", "08-MAY-2014", "08-MAY-2014", "08-MAY-2014", "AFTER LYING DOWN FOR 5 MINUTES", "AFTER LYING DOWN FOR 5 MINUTES", "AFTER LYING DOWN FOR 5 MINUTES", 815, 815, 815]
["CDISCPILOT01", "701", "1118", "STANDING", "STANDING", "STANDING", "72", "", "83", "106", "", "", "mmHg", "", "BEATS/MIN", "mmHg", "", "", "", "", "", "", "", "", "", "WEEK 8", "08-MAY-2014", "08-MAY-2014", "", "08-MAY-2014", "08-MAY-2014", "", "", "AFTER STANDING FOR 1 MINUTE", "AFTER STANDING FOR 1 MINUTE", "AFTER STANDING FOR 1 MINUTE", 816, 816, 816]
["CDISCPILOT01", "701", "1118", "STANDING", "STANDING", "STANDING", "73", "", "80", "131", "", "", "mmHg", "", "BEATS/MIN", "mmHg", "", "", "", "", "", "", "", "", "", "WEEK 8", "08-MAY-2014", "08-MAY-2014", "", "08-MAY-2014", "08-MAY-2014", "", "", "AFTER STANDING FOR 3 MINUTES", "AFTER STANDING FOR 3 MINUTES", "AFTER STANDING FOR 3 MINUTES", 817, 817, 817]
["CDISCPILOT01", "701", "1118", "SUPINE", "SUPINE", "SUPINE", "72", "", "75", "123", "98.1", "162.0", "mmHg", "", "BEATS/MIN", "mmHg", "F", "LB", "", "", "", "", "", "", "ORAL CAVITY", "WEEK 12", "05-JUN-2014", "05-JUN-2014", "", "05-JUN-2014", "05-JUN-2014", "05-JUN-2014", "05-JUN-2014", "AFTER LYING DOWN FOR 5 MINUTES", "AFTER LYING DOWN FOR 5 MINUTES", "AFTER LYING DOWN FOR 5 MINUTES", 815, 815, 815]
["CDISCPILOT01", "701", "1118", "STANDING", "STANDING", "STANDING", "68", "", "89", "130", "", "", "mmHg", "", "BEATS/MIN", "mmHg", "", "", "", "", "", "", "", "", "", "WEEK 12", "05-JUN-2014", "05-JUN-2014", "", "05-JUN-2014", "05-JUN-2014", "", "", "AFTER STANDING FOR 1 MINUTE", "AFTER STANDING FOR 1 MINUTE", "AFTER STANDING FOR 1 MINUTE", 816, 816, 816]
["CDISCPILOT01", "701", "1118", "STANDING", "STANDING", "STANDING", "72", "", "89", "130", "", "", "mmHg", "", "BEATS/MIN", "mmHg", "", "", "", "", "", "", "", "", "", "WEEK 12", "05-JUN-2014", "05-JUN-2014", "", "05-JUN-2014", "05-JUN-2014", "", "", "AFTER STANDING FOR 3 MINUTES", "AFTER STANDING FOR 3 MINUTES", "AFTER STANDING FOR 3 MINUTES", 817, 817, 817]
["CDISCPILOT01", "701", "1118", "SUPINE", "SUPINE", "SUPINE", "72", "", "70", "122", "97.2", "161.0", "mmHg", "", "BEATS/MIN", "mmHg", "F", "LB", "", "", "", "", "", "", "ORAL CAVITY", "WEEK 16", "02-JUL-2014", "02-JUL-2014", "", "02-JUL-2014", "02-JUL-2014", "02-JUL-2014", "02-JUL-2014", "AFTER LYING DOWN FOR 5 MINUTES", "AFTER LYING DOWN FOR 5 MINUTES", "AFTER LYING DOWN FOR 5 MINUTES", 815, 815, 815]
["CDISCPILOT01", "701", "1118", "STANDING", "STANDING", "STANDING", "68", "", "78", "122", "", "", "mmHg", "", "BEATS/MIN", "mmHg", "", "", "", "", "", "", "", "", "", "WEEK 16", "02-JUL-2014", "02-JUL-2014", "", "02-JUL-2014", "02-JUL-2014", "", "", "AFTER STANDING FOR 1 MINUTE", "AFTER STANDING FOR 1 MINUTE", "AFTER STANDING FOR 1 MINUTE", 816, 816, 816]
["CDISCPILOT01", "701", "1118", "STANDING", "STANDING", "STANDING", "68", "", "78", "114", "", "", "mmHg", "", "BEATS/MIN", "mmHg", "", "", "", "", "", "", "", "", "", "WEEK 16", "02-JUL-2014", "02-JUL-2014", "", "02-JUL-2014", "02-JUL-2014", "", "", "AFTER STANDING FOR 3 MINUTES", "AFTER STANDING FOR 3 MINUTES", "AFTER STANDING FOR 3 MINUTES", 817, 817, 817]
["CDISCPILOT01", "701", "1118", "SUPINE", "SUPINE", "SUPINE", "82", "", "72", "136", "99.8", "158.0", "mmHg", "", "BEATS/MIN", "mmHg", "F", "LB", "", "", "", "", "", "", "ORAL CAVITY", "WEEK 20", "30-JUL-2014", "30-JUL-2014", "", "30-JUL-2014", "30-JUL-2014", "30-JUL-2014", "30-JUL-2014", "AFTER LYING DOWN FOR 5 MINUTES", "AFTER LYING DOWN FOR 5 MINUTES", "AFTER LYING DOWN FOR 5 MINUTES", 815, 815, 815]
["CDISCPILOT01", "701", "1118", "STANDING", "STANDING", "STANDING", "85", "", "87", "154", "", "", "mmHg", "", "BEATS/MIN", "mmHg", "", "", "", "", "", "", "", "", "", "WEEK 20", "30-JUL-2014", "30-JUL-2014", "", "30-JUL-2014", "30-JUL-2014", "", "", "AFTER STANDING FOR 1 MINUTE", "AFTER STANDING FOR 1 MINUTE", "AFTER STANDING FOR 1 MINUTE", 816, 816, 816]
["CDISCPILOT01", "701", "1118", "STANDING", "STANDING", "STANDING", "89", "", "85", "135", "", "", "mmHg", "", "BEATS/MIN", "mmHg", "", "", "", "", "", "", "", "", "", "WEEK 20", "30-JUL-2014", "30-JUL-2014", "", "30-JUL-2014", "30-JUL-2014", "", "", "AFTER STANDING FOR 3 MINUTES", "AFTER STANDING FOR 3 MINUTES", "AFTER STANDING FOR 3 MINUTES", 817, 817, 817]
["CDISCPILOT01", "701", "1118", "SUPINE", "SUPINE", "SUPINE", "76", "", "61", "130", "98.6", "157.0", "mmHg", "", "BEATS/MIN", "mmHg", "F", "LB", "", "", "", "", "", "", "ORAL CAVITY", "WEEK 24", "27-AUG-2014", "27-AUG-2014", "", "27-AUG-2014", "27-AUG-2014", "27-AUG-2014", "27-AUG-2014", "AFTER LYING DOWN FOR 5 MINUTES", "AFTER LYING DOWN FOR 5 MINUTES", "AFTER LYING DOWN FOR 5 MINUTES", 815, 815, 815]
["CDISCPILOT01", "701", "1118", "STANDING", "STANDING", "STANDING", "72", "", "74", "107", "", "", "mmHg", "", "BEATS/MIN", "mmHg", "", "", "", "", "", "", "", "", "", "WEEK 24", "27-AUG-2014", "27-AUG-2014", "", "27-AUG-2014", "27-AUG-2014", "", "", "AFTER STANDING FOR 1 MINUTE", "AFTER STANDING FOR 1 MINUTE", "AFTER STANDING FOR 1 MINUTE", 816, 816, 816]
["CDISCPILOT01", "701", "1118", "STANDING", "STANDING", "STANDING", "73", "", "75", "116", "", "", "mmHg", "", "BEATS/MIN", "mmHg", "", "", "", "", "", "", "", "", "", "WEEK 24", "27-AUG-2014", "27-AUG-2014", "", "27-AUG-2014", "27-AUG-2014", "", "", "AFTER STANDING FOR 3 MINUTES", "AFTER STANDING FOR 3 MINUTES", "AFTER STANDING FOR 3 MINUTES", 817, 817, 817]
["CDISCPILOT01", "701", "1118", "SUPINE", "SUPINE", "SUPINE", "74", "", "65", "121", "98.2", "161.0", "mmHg", "", "BEATS/MIN", "mmHg", "F", "LB", "", "", "", "", "", "", "ORAL CAVITY", "WEEK 26", "09-SEP-2014", "09-SEP-2014", "", "09-SEP-2014", "09-SEP-2014", "09-SEP-2014", "09-SEP-2014", "AFTER LYING DOWN FOR 5 MINUTES", "AFTER LYING DOWN FOR 5 MINUTES", "AFTER LYING DOWN FOR 5 MINUTES", 815, 815, 815]
["CDISCPILOT01", "701", "1118", "STANDING", "STANDING", "STANDING", "67", "", "75", "113", "", "", "mmHg", "", "BEATS/MIN", "mmHg", "", "", "", "", "", "", "", "", "", "WEEK 26", "09-SEP-2014", "09-SEP-2014", "", "09-SEP-2014", "09-SEP-2014", "", "", "AFTER STANDING FOR 1 MINUTE", "AFTER STANDING FOR 1 MINUTE", "AFTER STANDING FOR 1 MINUTE", 816, 816, 816]
["CDISCPILOT01", "701", "1118", "STANDING", "STANDING", "STANDING", "72", "", "75", "122", "", "", "mmHg", "", "BEATS/MIN", "mmHg", "", "", "", "", "", "", "", "", "", "WEEK 26", "09-SEP-2014", "09-SEP-2014", "", "09-SEP-2014", "09-SEP-2014", "", "", "AFTER STANDING FOR 3 MINUTES", "AFTER STANDING FOR 3 MINUTES", "AFTER STANDING FOR 3 MINUTES", 817, 817, 817]
["CDISCPILOT01", "701", "1130", "SUPINE", "SUPINE", "SUPINE", "68", "66.8", "71", "130", "97.6", "175.0", "mmHg", "IN", "BEATS/MIN", "mmHg", "F", "LB", "", "", "", "", "", "", "ORAL CAVITY", "SCREENING 1", "09-FEB-2014", "09-FEB-2014", "09-FEB-2014", "09-FEB-2014", "09-FEB-2014", "09-FEB-2014", "09-FEB-2014", "AFTER LYING DOWN FOR 5 MINUTES", "AFTER LYING DOWN FOR 5 MINUTES", "AFTER LYING DOWN FOR 5 MINUTES", 815, 815, 815]
["CDISCPILOT01", "701", "1130", "STANDING", "STANDING", "STANDING", "71", "", "76", "121", "", "", "mmHg", "", "BEATS/MIN", "mmHg", "", "", "", "", "", "", "", "", "", "SCREENING 1", "09-FEB-2014", "09-FEB-2014", "", "09-FEB-2014", "09-FEB-2014", "", "", "AFTER STANDING FOR 1 MINUTE", "AFTER STANDING FOR 1 MINUTE", "AFTER STANDING FOR 1 MINUTE", 816, 816, 816]
["CDISCPILOT01", "701", "1130", "STANDING", "STANDING", "STANDING", "70", "", "72", "130", "", "", "mmHg", "", "BEATS/MIN", "mmHg", "", "", "", "", "", "", "", "", "", "SCREENING 1", "09-FEB-2014", "09-FEB-2014", "", "09-FEB-2014", "09-FEB-2014", "", "", "AFTER STANDING FOR 3 MINUTES", "AFTER STANDING FOR 3 MINUTES", "AFTER STANDING FOR 3 MINUTES", 817, 817, 817]
["CDISCPILOT01", "701", "1130", "SUPINE", "SUPINE", "SUPINE", "71", "", "67", "135", "96.3", "", "mmHg", "", "BEATS/MIN", "mmHg", "F", "", "", "", "", "", "", "", "ORAL CAVITY", "SCREENING 2", "13-FEB-2014", "13-FEB-2014", "", "13-FEB-2014", "13-FEB-2014", "13-FEB-2014", "", "AFTER LYING DOWN FOR 5 MINUTES", "AFTER LYING DOWN FOR 5 MINUTES", "AFTER LYING DOWN FOR 5 MINUTES", 815, 815, 815]
["CDISCPILOT01", "701", "1130", "STANDING", "STANDING", "STANDING", "64", "", "71", "122", "", "", "mmHg", "", "BEATS/MIN", "mmHg", "", "", "", "", "", "", "", "", "", "SCREENING 2", "13-FEB-2014", "13-FEB-2014", "", "13-FEB-2014", "13-FEB-2014", "", "", "AFTER STANDING FOR 1 MINUTE", "AFTER STANDING FOR 1 MINUTE", "AFTER STANDING FOR 1 MINUTE", 816, 816, 816]
["CDISCPILOT01", "701", "1130", "STANDING", "STANDING", "STANDING", "76", "", "70", "131", "", "", "mmHg", "", "BEATS/MIN", "mmHg", "", "", "", "", "", "", "", "", "", "SCREENING 2", "13-FEB-2014", "13-FEB-2014", "", "13-FEB-2014", "13-FEB-2014", "", "", "AFTER STANDING FOR 3 MINUTES", "AFTER STANDING FOR 3 MINUTES", "AFTER STANDING FOR 3 MINUTES", 817, 817, 817]
["CDISCPILOT01", "701", "1130", "SUPINE", "SUPINE", "SUPINE", "74", "", "70", "122", "96.8", "175.0", "mmHg", "", "BEATS/MIN", "mmHg", "F", "LB", "", "", "", "", "", "", "ORAL CAVITY", "BASELINE", "15-FEB-2014", "15-FEB-2014", "", "15-FEB-2014", "15-FEB-2014", "15-FEB-2014", "15-FEB-2014", "AFTER LYING DOWN FOR 5 MINUTES", "AFTER LYING DOWN FOR 5 MINUTES", "AFTER LYING DOWN FOR 5 MINUTES", 815, 815, 815]
["CDISCPILOT01", "701", "1130", "STANDING", "STANDING", "STANDING", "67", "", "77", "122", "", "", "mmHg", "", "BEATS/MIN", "mmHg", "", "", "", "", "", "", "", "", "", "BASELINE", "15-FEB-2014", "15-FEB-2014", "", "15-FEB-2014", "15-FEB-2014", "", "", "AFTER STANDING FOR 1 MINUTE", "AFTER STANDING FOR 1 MINUTE", "AFTER STANDING FOR 1 MINUTE", 816, 816, 816]
["CDISCPILOT01", "701", "1130", "STANDING", "STANDING", "STANDING", "68", "", "76", "130", "", "", "mmHg", "", "BEATS/MIN", "mmHg", "", "", "", "", "", "", "", "", "", "BASELINE", "15-FEB-2014", "15-FEB-2014", "", "15-FEB-2014", "15-FEB-2014", "", "", "AFTER STANDING FOR 3 MINUTES", "AFTER STANDING FOR 3 MINUTES", "AFTER STANDING FOR 3 MINUTES", 817, 817, 817]
["CDISCPILOT01", "701", "1130", "SUPINE", "SUPINE", "SUPINE", "75", "", "65", "145", "97.5", "", "mmHg", "", "BEATS/MIN", "mmHg", "F", "", "", "", "", "", "", "", "ORAL CAVITY", "AMBUL ECG PLACEMENT", "28-FEB-2014", "28-FEB-2014", "", "28-FEB-2014", "28-FEB-2014", "28-FEB-2014", "", "AFTER LYING DOWN FOR 5 MINUTES", "AFTER LYING DOWN FOR 5 MINUTES", "AFTER LYING DOWN FOR 5 MINUTES", 815, 815, 815]
["CDISCPILOT01", "701", "1130", "STANDING", "STANDING", "STANDING", "72", "", "70", "138", "", "", "mmHg", "", "BEATS/MIN", "mmHg", "", "", "", "", "", "", "", "", "", "AMBUL ECG PLACEMENT", "28-FEB-2014", "28-FEB-2014", "", "28-FEB-2014", "28-FEB-2014", "", "", "AFTER STANDING FOR 1 MINUTE", "AFTER STANDING FOR 1 MINUTE", "AFTER STANDING FOR 1 MINUTE", 816, 816, 816]
["CDISCPILOT01", "701", "1130", "STANDING", "STANDING", "STANDING", "73", "", "68", "131", "", "", "mmHg", "", "BEATS/MIN", "mmHg", "", "", "", "", "", "", "", "", "", "AMBUL ECG PLACEMENT", "28-FEB-2014", "28-FEB-2014", "", "28-FEB-2014", "28-FEB-2014", "", "", "AFTER STANDING FOR 3 MINUTES", "AFTER STANDING FOR 3 MINUTES", "AFTER STANDING FOR 3 MINUTES", 817, 817, 817]
["CDISCPILOT01", "701", "1130", "SUPINE", "SUPINE", "SUPINE", "72", "", "68", "123", "98.2", "175.0", "mmHg", "", "BEATS/MIN", "mmHg", "F", "LB", "", "", "", "", "", "", "ORAL CAVITY", "WEEK 2", "01-MAR-2014", "01-MAR-2014", "", "01-MAR-2014", "01-MAR-2014", "01-MAR-2014", "01-MAR-2014", "AFTER LYING DOWN FOR 5 MINUTES", "AFTER LYING DOWN FOR 5 MINUTES", "AFTER LYING DOWN FOR 5 MINUTES", 815, 815, 815]
["CDISCPILOT01", "701", "1130", "STANDING", "STANDING", "STANDING", "69", "", "76", "131", "", "", "mmHg", "", "BEATS/MIN", "mmHg", "", "", "", "", "", "", "", "", "", "WEEK 2", "01-MAR-2014", "01-MAR-2014", "", "01-MAR-2014", "01-MAR-2014", "", "", "AFTER STANDING FOR 1 MINUTE", "AFTER STANDING FOR 1 MINUTE", "AFTER STANDING FOR 1 MINUTE", 816, 816, 816]
["CDISCPILOT01", "701", "1130", "STANDING", "STANDING", "STANDING", "65", "", "72", "123", "", "", "mmHg", "", "BEATS/MIN", "mmHg", "", "", "", "", "", "", "", "", "", "WEEK 2", "01-MAR-2014", "01-MAR-2014", "", "01-MAR-2014", "01-MAR-2014", "", "", "AFTER STANDING FOR 3 MINUTES", "AFTER STANDING FOR 3 MINUTES", "AFTER STANDING FOR 3 MINUTES", 817, 817, 817]
["CDISCPILOT01", "701", "1130", "SUPINE", "SUPINE", "SUPINE", "74", "", "74", "100", "98.2", "172.0", "mmHg", "", "BEATS/MIN", "mmHg", "F", "LB", "", "", "", "", "", "", "ORAL CAVITY", "WEEK 4", "15-MAR-2014", "15-MAR-2014", "", "15-MAR-2014", "15-MAR-2014", "15-MAR-2014", "15-MAR-2014", "AFTER LYING DOWN FOR 5 MINUTES", "AFTER LYING DOWN FOR 5 MINUTES", "AFTER LYING DOWN FOR 5 MINUTES", 815, 815, 815]
["CDISCPILOT01", "701", "1130", "STANDING", "STANDING", "STANDING", "80", "", "80", "123", "", "", "mmHg", "", "BEATS/MIN", "mmHg", "", "", "", "", "", "", "", "", "", "WEEK 4", "15-MAR-2014", "15-MAR-2014", "", "15-MAR-2014", "15-MAR-2014", "", "", "AFTER STANDING FOR 1 MINUTE", "AFTER STANDING FOR 1 MINUTE", "AFTER STANDING FOR 1 MINUTE", 816, 816, 816]
["CDISCPILOT01", "701", "1130", "STANDING", "STANDING", "STANDING", "72", "", "79", "123", "", "", "mmHg", "", "BEATS/MIN", "mmHg", "", "", "", "", "", "", "", "", "", "WEEK 4", "15-MAR-2014", "15-MAR-2014", "", "15-MAR-2014", "15-MAR-2014", "", "", "AFTER STANDING FOR 3 MINUTES", "AFTER STANDING FOR 3 MINUTES", "AFTER STANDING FOR 3 MINUTES", 817, 817, 817]
["CDISCPILOT01", "701", "1130", "SUPINE", "SUPINE", "SUPINE", "68", "", "69", "115", "98.0", "", "mmHg", "", "BEATS/MIN", "mmHg", "F", "", "", "", "", "", "", "", "ORAL CAVITY", "AMBUL ECG REMOVAL", "17-MAR-2014", "17-MAR-2014", "", "17-MAR-2014", "17-MAR-2014", "17-MAR-2014", "", "AFTER LYING DOWN FOR 5 MINUTES", "AFTER LYING DOWN FOR 5 MINUTES", "AFTER LYING DOWN FOR 5 MINUTES", 815, 815, 815]
["CDISCPILOT01", "701", "1130", "STANDING", "STANDING", "STANDING", "68", "", "78", "115", "", "", "mmHg", "", "BEATS/MIN", "mmHg", "", "", "", "", "", "", "", "", "", "AMBUL ECG REMOVAL", "17-MAR-2014", "17-MAR-2014", "", "17-MAR-2014", "17-MAR-2014", "", "", "AFTER STANDING FOR 1 MINUTE", "AFTER STANDING FOR 1 MINUTE", "AFTER STANDING FOR 1 MINUTE", 816, 816, 816]
["CDISCPILOT01", "701", "1130", "STANDING", "STANDING", "STANDING", "75", "", "82", "122", "", "", "mmHg", "", "BEATS/MIN", "mmHg", "", "", "", "", "", "", "", "", "", "AMBUL ECG REMOVAL", "17-MAR-2014", "17-MAR-2014", "", "17-MAR-2014", "17-MAR-2014", "", "", "AFTER STANDING FOR 3 MINUTES", "AFTER STANDING FOR 3 MINUTES", "AFTER STANDING FOR 3 MINUTES", 817, 817, 817]
["CDISCPILOT01", "701", "1130", "SUPINE", "SUPINE", "SUPINE", "64", "", "60", "123", "97.8", "172.0", "mmHg", "", "BEATS/MIN", "mmHg", "F", "LB", "", "", "", "", "", "", "ORAL CAVITY", "WEEK 6", "29-MAR-2014", "29-MAR-2014", "", "29-MAR-2014", "29-MAR-2014", "29-MAR-2014", "29-MAR-2014", "AFTER LYING DOWN FOR 5 MINUTES", "AFTER LYING DOWN FOR 5 MINUTES", "AFTER LYING DOWN FOR 5 MINUTES", 815, 815, 815]
["CDISCPILOT01", "701", "1130", "STANDING", "STANDING", "STANDING", "70", "", "72", "121", "", "", "mmHg", "", "BEATS/MIN", "mmHg", "", "", "", "", "", "", "", "", "", "WEEK 6", "29-MAR-2014", "29-MAR-2014", "", "29-MAR-2014", "29-MAR-2014", "", "", "AFTER STANDING FOR 1 MINUTE", "AFTER STANDING FOR 1 MINUTE", "AFTER STANDING FOR 1 MINUTE", 816, 816, 816]
["CDISCPILOT01", "701", "1130", "STANDING", "STANDING", "STANDING", "71", "", "72", "136", "", "", "mmHg", "", "BEATS/MIN", "mmHg", "", "", "", "", "", "", "", "", "", "WEEK 6", "29-MAR-2014", "29-MAR-2014", "", "29-MAR-2014", "29-MAR-2014", "", "", "AFTER STANDING FOR 3 MINUTES", "AFTER STANDING FOR 3 MINUTES", "AFTER STANDING FOR 3 MINUTES", 817, 817, 817]
["CDISCPILOT01", "701", "1130", "SUPINE", "SUPINE", "SUPINE", "75", "", "70", "145", "96.1", "176.0", "mmHg", "", "BEATS/MIN", "mmHg", "F", "LB", "", "", "", "", "", "", "ORAL CAVITY", "WEEK 8", "12-APR-2014", "12-APR-2014", "", "12-APR-2014", "12-APR-2014", "12-APR-2014", "12-APR-2014", "AFTER LYING DOWN FOR 5 MINUTES", "AFTER LYING DOWN FOR 5 MINUTES", "AFTER LYING DOWN FOR 5 MINUTES", 815, 815, 815]
["CDISCPILOT01", "701", "1130", "STANDING", "STANDING", "STANDING", "68", "", "76", "138", "", "", "mmHg", "", "BEATS/MIN", "mmHg", "", "", "", "", "", "", "", "", "", "WEEK 8", "12-APR-2014", "12-APR-2014", "", "12-APR-2014", "12-APR-2014", "", "", "AFTER STANDING FOR 1 MINUTE", "AFTER STANDING FOR 1 MINUTE", "AFTER STANDING FOR 1 MINUTE", 816, 816, 816]
["CDISCPILOT01", "701", "1130", "STANDING", "STANDING", "STANDING", "76", "", "75", "146", "", "", "mmHg", "", "BEATS/MIN", "mmHg", "", "", "", "", "", "", "", "", "", "WEEK 8", "12-APR-2014", "12-APR-2014", "", "12-APR-2014", "12-APR-2014", "", "", "AFTER STANDING FOR 3 MINUTES", "AFTER STANDING FOR 3 MINUTES", "AFTER STANDING FOR 3 MINUTES", 817, 817, 817]
["CDISCPILOT01", "701", "1130", "SUPINE", "SUPINE", "SUPINE", "67", "", "68", "114", "98.2", "173.0", "mmHg", "", "BEATS/MIN", "mmHg", "F", "LB", "", "", "", "", "", "", "ORAL CAVITY", "WEEK 12", "16-MAY-2014", "16-MAY-2014", "", "16-MAY-2014", "16-MAY-2014", "16-MAY-2014", "16-MAY-2014", "AFTER LYING DOWN FOR 5 MINUTES", "AFTER LYING DOWN FOR 5 MINUTES", "AFTER LYING DOWN FOR 5 MINUTES", 815, 815, 815]
["CDISCPILOT01", "701", "1130", "STANDING", "STANDING", "STANDING", "60", "", "75", "117", "", "", "mmHg", "", "BEATS/MIN", "mmHg", "", "", "", "", "", "", "", "", "", "WEEK 12", "16-MAY-2014", "16-MAY-2014", "", "16-MAY-2014", "16-MAY-2014", "", "", "AFTER STANDING FOR 1 MINUTE", "AFTER STANDING FOR 1 MINUTE", "AFTER STANDING FOR 1 MINUTE", 816, 816, 816]
["CDISCPILOT01", "701", "1130", "STANDING", "STANDING", "STANDING", "72", "", "74", "122", "", "", "mmHg", "", "BEATS/MIN", "mmHg", "", "", "", "", "", "", "", "", "", "WEEK 12", "16-MAY-2014", "16-MAY-2014", "", "16-MAY-2014", "16-MAY-2014", "", "", "AFTER STANDING FOR 3 MINUTES", "AFTER STANDING FOR 3 MINUTES", "AFTER STANDING FOR 3 MINUTES", 817, 817, 817]
["CDISCPILOT01", "701", "1130", "SUPINE", "SUPINE", "SUPINE", "76", "", "65", "123", "97.4", "173.0", "mmHg", "", "BEATS/MIN", "mmHg", "F", "LB", "", "", "", "", "", "", "ORAL CAVITY", "WEEK 16", "07-JUN-2014", "07-JUN-2014", "", "07-JUN-2014", "07-JUN-2014", "07-JUN-2014", "07-JUN-2014", "AFTER LYING DOWN FOR 5 MINUTES", "AFTER LYING DOWN FOR 5 MINUTES", "AFTER LYING DOWN FOR 5 MINUTES", 815, 815, 815]
["CDISCPILOT01", "701", "1130", "STANDING", "STANDING", "STANDING", "73", "", "72", "141", "", "", "mmHg", "", "BEATS/MIN", "mmHg", "", "", "", "", "", "", "", "", "", "WEEK 16", "07-JUN-2014", "07-JUN-2014", "", "07-JUN-2014", "07-JUN-2014", "", "", "AFTER STANDING FOR 1 MINUTE", "AFTER STANDING FOR 1 MINUTE", "AFTER STANDING FOR 1 MINUTE", 816, 816, 816]
["CDISCPILOT01", "701", "1130", "STANDING", "STANDING", "STANDING", "76", "", "72", "155", "", "", "mmHg", "", "BEATS/MIN", "mmHg", "", "", "", "", "", "", "", "", "", "WEEK 16", "07-JUN-2014", "07-JUN-2014", "", "07-JUN-2014", "07-JUN-2014", "", "", "AFTER STANDING FOR 3 MINUTES", "AFTER STANDING FOR 3 MINUTES", "AFTER STANDING FOR 3 MINUTES", 817, 817, 817]
["CDISCPILOT01", "701", "1130", "SUPINE", "SUPINE", "SUPINE", "63", "", "74", "114", "97.3", "174.0", "mmHg", "", "BEATS/MIN", "mmHg", "F", "LB", "", "", "", "", "", "", "ORAL CAVITY", "WEEK 20", "02-JUL-2014", "02-JUL-2014", "", "02-JUL-2014", "02-JUL-2014", "02-JUL-2014", "02-JUL-2014", "AFTER LYING DOWN FOR 5 MINUTES", "AFTER LYING DOWN FOR 5 MINUTES", "AFTER LYING DOWN FOR 5 MINUTES", 815, 815, 815]
["CDISCPILOT01", "701", "1130", "STANDING", "STANDING", "STANDING", "64", "", "83", "107", "", "", "mmHg", "", "BEATS/MIN", "mmHg", "", "", "", "", "", "", "", "", "", "WEEK 20", "02-JUL-2014", "02-JUL-2014", "", "02-JUL-2014", "02-JUL-2014", "", "", "AFTER STANDING FOR 1 MINUTE", "AFTER STANDING FOR 1 MINUTE", "AFTER STANDING FOR 1 MINUTE", 816, 816, 816]
["CDISCPILOT01", "701", "1130", "STANDING", "STANDING", "STANDING", "56", "", "80", "130", "", "", "mmHg", "", "BEATS/MIN", "mmHg", "", "", "", "", "", "", "", "", "", "WEEK 20", "02-JUL-2014", "02-JUL-2014", "", "02-JUL-2014", "02-JUL-2014", "", "", "AFTER STANDING FOR 3 MINUTES", "AFTER STANDING FOR 3 MINUTES", "AFTER STANDING FOR 3 MINUTES", 817, 817, 817]
["CDISCPILOT01", "701", "1130", "SUPINE", "SUPINE", "SUPINE", "76", "", "60", "124", "97.2", "170.0", "mmHg", "", "BEATS/MIN", "mmHg", "F", "LB", "", "", "", "", "", "", "ORAL CAVITY", "WEEK 24", "02-AUG-2014", "02-AUG-2014", "", "02-AUG-2014", "02-AUG-2014", "02-AUG-2014", "02-AUG-2014", "AFTER LYING DOWN FOR 5 MINUTES", "AFTER LYING DOWN FOR 5 MINUTES", "AFTER LYING DOWN FOR 5 MINUTES", 815, 815, 815]
["CDISCPILOT01", "701", "1130", "STANDING", "STANDING", "STANDING", "76", "", "76", "124", "", "", "mmHg", "", "BEATS/MIN", "mmHg", "", "", "", "", "", "", "", "", "", "WEEK 24", "02-AUG-2014", "02-AUG-2014", "", "02-AUG-2014", "02-AUG-2014", "", "", "AFTER STANDING FOR 1 MINUTE", "AFTER STANDING FOR 1 MINUTE", "AFTER STANDING FOR 1 MINUTE", 816, 816, 816]
["CDISCPILOT01", "701", "1130", "STANDING", "STANDING", "STANDING", "80", "", "74", "139", "", "", "mmHg", "", "BEATS/MIN", "mmHg", "", "", "", "", "", "", "", "", "", "WEEK 24", "02-AUG-2014", "02-AUG-2014", "", "02-AUG-2014", "02-AUG-2014", "", "", "AFTER STANDING FOR 3 MINUTES", "AFTER STANDING FOR 3 MINUTES", "AFTER STANDING FOR 3 MINUTES", 817, 817, 817]
["CDISCPILOT01", "701", "1130", "SUPINE", "SUPINE", "SUPINE", "70", "", "63", "140", "97.1", "171.0", "mmHg", "", "BEATS/MIN", "mmHg", "F", "LB", "", "", "", "", "", "", "ORAL CAVITY", "WEEK 26", "16-AUG-2014", "16-AUG-2014", "", "16-AUG-2014", "16-AUG-2014", "16-AUG-2014", "16-AUG-2014", "AFTER LYING DOWN FOR 5 MINUTES", "AFTER LYING DOWN FOR 5 MINUTES", "AFTER LYING DOWN FOR 5 MINUTES", 815, 815, 815]
["CDISCPILOT01", "701", "1130", "STANDING", "STANDING", "STANDING", "91", "", "76", "130", "", "", "mmHg", "", "BEATS/MIN", "mmHg", "", "", "", "", "", "", "", "", "", "WEEK 26", "16-AUG-2014", "16-AUG-2014", "", "16-AUG-2014", "16-AUG-2014", "", "", "AFTER STANDING FOR 1 MINUTE", "AFTER STANDING FOR 1 MINUTE", "AFTER STANDING FOR 1 MINUTE", 816, 816, 816]
["CDISCPILOT01", "701", "1130", "STANDING", "STANDING", "STANDING", "84", "", "76", "155", "", "", "mmHg", "", "BEATS/MIN", "mmHg", "", "", "", "", "", "", "", "", "", "WEEK 26", "16-AUG-2014", "16-AUG-2014", "", "16-AUG-2014", "16-AUG-2014", "", "", "AFTER STANDING FOR 3 MINUTES", "AFTER STANDING FOR 3 MINUTES", "AFTER STANDING FOR 3 MINUTES", 817, 817, 817]
["CDISCPILOT01", "701", "1133", "SUPINE", "SUPINE", "SUPINE", "78", "64.0", "52", "155", "97.7", "165.0", "mmHg", "IN", "BEATS/MIN", "mmHg", "F", "LB", "", "", "", "", "", "", "ORAL CAVITY", "SCREENING 1", "23-OCT-2012", "23-OCT-2012", "23-OCT-2012", "23-OCT-2012", "23-OCT-2012", "23-OCT-2012", "23-OCT-2012", "AFTER LYING DOWN FOR 5 MINUTES", "AFTER LYING DOWN FOR 5 MINUTES", "AFTER LYING DOWN FOR 5 MINUTES", 815, 815, 815]
["CDISCPILOT01", "701", "1133", "STANDING", "STANDING", "STANDING", "80", "", "64", "146", "", "", "mmHg", "", "BEATS/MIN", "mmHg", "", "", "", "", "", "", "", "", "", "SCREENING 1", "23-OCT-2012", "23-OCT-2012", "", "23-OCT-2012", "23-OCT-2012", "", "", "AFTER STANDING FOR 1 MINUTE", "AFTER STANDING FOR 1 MINUTE", "AFTER STANDING FOR 1 MINUTE", 816, 816, 816]
["CDISCPILOT01", "701", "1133", "STANDING", "STANDING", "STANDING", "60", "", "61", "139", "", "", "mmHg", "", "BEATS/MIN", "mmHg", "", "", "", "", "", "", "", "", "", "SCREENING 1", "23-OCT-2012", "23-OCT-2012", "", "23-OCT-2012", "23-OCT-2012", "", "", "AFTER STANDING FOR 3 MINUTES", "AFTER STANDING FOR 3 MINUTES", "AFTER STANDING FOR 3 MINUTES", 817, 817, 817]
["CDISCPILOT01", "701", "1133", "SUPINE", "SUPINE", "SUPINE", "72", "", "61", "150", "97.5", "", "mmHg", "", "BEATS/MIN", "mmHg", "F", "", "", "", "", "", "", "", "ORAL CAVITY", "SCREENING 2", "26-OCT-2012", "26-OCT-2012", "", "26-OCT-2012", "26-OCT-2012", "26-OCT-2012", "", "AFTER LYING DOWN FOR 5 MINUTES", "AFTER LYING DOWN FOR 5 MINUTES", "AFTER LYING DOWN FOR 5 MINUTES", 815, 815, 815]
["CDISCPILOT01", "701", "1133", "STANDING", "STANDING", "STANDING", "65", "", "54", "152", "", "", "mmHg", "", "BEATS/MIN", "mmHg", "", "", "", "", "", "", "", "", "", "SCREENING 2", "26-OCT-2012", "26-OCT-2012", "", "26-OCT-2012", "26-OCT-2012", "", "", "AFTER STANDING FOR 1 MINUTE", "AFTER STANDING FOR 1 MINUTE", "AFTER STANDING FOR 1 MINUTE", 816, 816, 816]
["CDISCPILOT01", "701", "1133", "STANDING", "STANDING", "STANDING", "68", "", "62", "139", "", "", "mmHg", "", "BEATS/MIN", "mmHg", "", "", "", "", "", "", "", "", "", "SCREENING 2", "26-OCT-2012", "26-OCT-2012", "", "26-OCT-2012", "26-OCT-2012", "", "", "AFTER STANDING FOR 3 MINUTES", "AFTER STANDING FOR 3 MINUTES", "AFTER STANDING FOR 3 MINUTES", 817, 817, 817]
["CDISCPILOT01", "701", "1133", "SUPINE", "SUPINE", "SUPINE", "59", "", "70", "160", "97.5", "164.0", "mmHg", "", "BEATS/MIN", "mmHg", "F", "LB", "", "", "", "", "", "", "ORAL CAVITY", "BASELINE", "28-OCT-2012", "28-OCT-2012", "", "28-OCT-2012", "28-OCT-2012", "28-OCT-2012", "28-OCT-2012", "AFTER LYING DOWN FOR 5 MINUTES", "AFTER LYING DOWN FOR 5 MINUTES", "AFTER LYING DOWN FOR 5 MINUTES", 815, 815, 815]
["CDISCPILOT01", "701", "1133", "STANDING", "STANDING", "STANDING", "56", "", "73", "138", "", "", "mmHg", "", "BEATS/MIN", "mmHg", "", "", "", "", "", "", "", "", "", "BASELINE", "28-OCT-2012", "28-OCT-2012", "", "28-OCT-2012", "28-OCT-2012", "", "", "AFTER STANDING FOR 1 MINUTE", "AFTER STANDING FOR 1 MINUTE", "AFTER STANDING FOR 1 MINUTE", 816, 816, 816]
["CDISCPILOT01", "701", "1133", "STANDING", "STANDING", "STANDING", "54", "", "64", "154", "", "", "mmHg", "", "BEATS/MIN", "mmHg", "", "", "", "", "", "", "", "", "", "BASELINE", "28-OCT-2012", "28-OCT-2012", "", "28-OCT-2012", "28-OCT-2012", "", "", "AFTER STANDING FOR 3 MINUTES", "AFTER STANDING FOR 3 MINUTES", "AFTER STANDING FOR 3 MINUTES", 817, 817, 817]
["CDISCPILOT01", "701", "1133", "SUPINE", "SUPINE", "SUPINE", "56", "", "65", "137", "98.5", "", "mmHg", "", "BEATS/MIN", "mmHg", "F", "", "", "", "", "", "", "", "ORAL CAVITY", "AMBUL ECG PLACEMENT", "11-NOV-2012", "11-NOV-2012", "", "11-NOV-2012", "11-NOV-2012", "11-NOV-2012", "", "AFTER LYING DOWN FOR 5 MINUTES", "AFTER LYING DOWN FOR 5 MINUTES", "AFTER LYING DOWN FOR 5 MINUTES", 815, 815, 815]
["CDISCPILOT01", "701", "1133", "STANDING", "STANDING", "STANDING", "62", "", "74", "123", "", "", "mmHg", "", "BEATS/MIN", "mmHg", "", "", "", "", "", "", "", "", "", "AMBUL ECG PLACEMENT", "11-NOV-2012", "11-NOV-2012", "", "11-NOV-2012", "11-NOV-2012", "", "", "AFTER STANDING FOR 1 MINUTE", "AFTER STANDING FOR 1 MINUTE", "AFTER STANDING FOR 1 MINUTE", 816, 816, 816]
["CDISCPILOT01", "701", "1133", "STANDING", "STANDING", "STANDING", "60", "", "75", "124", "", "", "mmHg", "", "BEATS/MIN", "mmHg", "", "", "", "", "", "", "", "", "", "AMBUL ECG PLACEMENT", "11-NOV-2012", "11-NOV-2012", "", "11-NOV-2012", "11-NOV-2012", "", "", "AFTER STANDING FOR 3 MINUTES", "AFTER STANDING FOR 3 MINUTES", "AFTER STANDING FOR 3 MINUTES", 817, 817, 817]
["CDISCPILOT01", "701", "1133", "SUPINE", "SUPINE", "SUPINE", "56", "", "59", "169", "97.8", "163.0", "mmHg", "", "BEATS/MIN", "mmHg", "F", "LB", "", "", "", "", "", "", "ORAL CAVITY", "WEEK 2", "12-NOV-2012", "12-NOV-2012", "", "12-NOV-2012", "12-NOV-2012", "12-NOV-2012", "12-NOV-2012", "AFTER LYING DOWN FOR 5 MINUTES", "AFTER LYING DOWN FOR 5 MINUTES", "AFTER LYING DOWN FOR 5 MINUTES", 815, 815, 815]
["CDISCPILOT01", "701", "1133", "STANDING", "STANDING", "STANDING", "59", "", "64", "137", "", "", "mmHg", "", "BEATS/MIN", "mmHg", "", "", "", "", "", "", "", "", "", "WEEK 2", "12-NOV-2012", "12-NOV-2012", "", "12-NOV-2012", "12-NOV-2012", "", "", "AFTER STANDING FOR 1 MINUTE", "AFTER STANDING FOR 1 MINUTE", "AFTER STANDING FOR 1 MINUTE", 816, 816, 816]
["CDISCPILOT01", "701", "1133", "STANDING", "STANDING", "STANDING", "64", "", "66", "144", "", "", "mmHg", "", "BEATS/MIN", "mmHg", "", "", "", "", "", "", "", "", "", "WEEK 2", "12-NOV-2012", "12-NOV-2012", "", "12-NOV-2012", "12-NOV-2012", "", "", "AFTER STANDING FOR 3 MINUTES", "AFTER STANDING FOR 3 MINUTES", "AFTER STANDING FOR 3 MINUTES", 817, 817, 817]
["CDISCPILOT01", "701", "1133", "SUPINE", "SUPINE", "SUPINE", "69", "", "64", "181", "97.4", "164.0", "mmHg", "", "BEATS/MIN", "mmHg", "F", "LB", "", "", "", "", "", "", "ORAL CAVITY", "WEEK 4", "26-NOV-2012", "26-NOV-2012", "", "26-NOV-2012", "26-NOV-2012", "26-NOV-2012", "26-NOV-2012", "AFTER LYING DOWN FOR 5 MINUTES", "AFTER LYING DOWN FOR 5 MINUTES", "AFTER LYING DOWN FOR 5 MINUTES", 815, 815, 815]
["CDISCPILOT01", "701", "1133", "STANDING", "STANDING", "STANDING", "73", "", "68", "155", "", "", "mmHg", "", "BEATS/MIN", "mmHg", "", "", "", "", "", "", "", "", "", "WEEK 4", "26-NOV-2012", "26-NOV-2012", "", "26-NOV-2012", "26-NOV-2012", "", "", "AFTER STANDING FOR 1 MINUTE", "AFTER STANDING FOR 1 MINUTE", "AFTER STANDING FOR 1 MINUTE", 816, 816, 816]
["CDISCPILOT01", "701", "1133", "STANDING", "STANDING", "STANDING", "58", "", "61", "160", "", "", "mmHg", "", "BEATS/MIN", "mmHg", "", "", "", "", "", "", "", "", "", "WEEK 4", "26-NOV-2012", "26-NOV-2012", "", "26-NOV-2012", "26-NOV-2012", "", "", "AFTER STANDING FOR 3 MINUTES", "AFTER STANDING FOR 3 MINUTES", "AFTER STANDING FOR 3 MINUTES", 817, 817, 817]
["CDISCPILOT01", "701", "1133", "SUPINE", "SUPINE", "SUPINE", "64", "", "66", "154", "97.5", "", "mmHg", "", "BEATS/MIN", "mmHg", "F", "", "", "", "", "", "", "", "ORAL CAVITY", "AMBUL ECG REMOVAL", "28-NOV-2012", "28-NOV-2012", "", "28-NOV-2012", "28-NOV-2012", "28-NOV-2012", "", "AFTER LYING DOWN FOR 5 MINUTES", "AFTER LYING DOWN FOR 5 MINUTES", "AFTER LYING DOWN FOR 5 MINUTES", 815, 815, 815]
["CDISCPILOT01", "701", "1133", "STANDING", "STANDING", "STANDING", "56", "", "67", "138", "", "", "mmHg", "", "BEATS/MIN", "mmHg", "", "", "", "", "", "", "", "", "", "AMBUL ECG REMOVAL", "28-NOV-2012", "28-NOV-2012", "", "28-NOV-2012", "28-NOV-2012", "", "", "AFTER STANDING FOR 1 MINUTE", "AFTER STANDING FOR 1 MINUTE", "AFTER STANDING FOR 1 MINUTE", 816, 816, 816]
["CDISCPILOT01", "701", "1133", "STANDING", "STANDING", "STANDING", "60", "", "72", "146", "", "", "mmHg", "", "BEATS/MIN", "mmHg", "", "", "", "", "", "", "", "", "", "AMBUL ECG REMOVAL", "28-NOV-2012", "28-NOV-2012", "", "28-NOV-2012", "28-NOV-2012", "", "", "AFTER STANDING FOR 3 MINUTES", "AFTER STANDING FOR 3 MINUTES", "AFTER STANDING FOR 3 MINUTES", 817, 817, 817]
["CDISCPILOT01", "701", "1133", "SUPINE", "SUPINE", "SUPINE", "55", "", "63", "161", "96.6", "165.0", "mmHg", "", "BEATS/MIN", "mmHg", "F", "LB", "", "", "", "", "", "", "ORAL CAVITY", "WEEK 6", "11-DEC-2012", "11-DEC-2012", "", "11-DEC-2012", "11-DEC-2012", "11-DEC-2012", "11-DEC-2012", "AFTER LYING DOWN FOR 5 MINUTES", "AFTER LYING DOWN FOR 5 MINUTES", "AFTER LYING DOWN FOR 5 MINUTES", 815, 815, 815]
["CDISCPILOT01", "701", "1133", "STANDING", "STANDING", "STANDING", "55", "", "61", "137", "", "", "mmHg", "", "BEATS/MIN", "mmHg", "", "", "", "", "", "", "", "", "", "WEEK 6", "11-DEC-2012", "11-DEC-2012", "", "11-DEC-2012", "11-DEC-2012", "", "", "AFTER STANDING FOR 1 MINUTE", "AFTER STANDING FOR 1 MINUTE", "AFTER STANDING FOR 1 MINUTE", 816, 816, 816]
["CDISCPILOT01", "701", "1133", "STANDING", "STANDING", "STANDING", "55", "", "62", "137", "", "", "mmHg", "", "BEATS/MIN", "mmHg", "", "", "", "", "", "", "", "", "", "WEEK 6", "11-DEC-2012", "11-DEC-2012", "", "11-DEC-2012", "11-DEC-2012", "", "", "AFTER STANDING FOR 3 MINUTES", "AFTER STANDING FOR 3 MINUTES", "AFTER STANDING FOR 3 MINUTES", 817, 817, 817]
["CDISCPILOT01", "701", "1133", "SUPINE", "SUPINE", "SUPINE", "59", "", "57", "145", "97.8", "166.0", "mmHg", "", "BEATS/MIN", "mmHg", "F", "LB", "", "", "", "", "", "", "ORAL CAVITY", "WEEK 8", "24-DEC-2012", "24-DEC-2012", "", "24-DEC-2012", "24-DEC-2012", "24-DEC-2012", "24-DEC-2012", "AFTER LYING DOWN FOR 5 MINUTES", "AFTER LYING DOWN FOR 5 MINUTES", "AFTER LYING DOWN FOR 5 MINUTES", 815, 815, 815]
["CDISCPILOT01", "701", "1133", "STANDING", "STANDING", "STANDING", "56", "", "61", "154", "", "", "mmHg", "", "BEATS/MIN", "mmHg", "", "", "", "", "", "", "", "", "", "WEEK 8", "24-DEC-2012", "24-DEC-2012", "", "24-DEC-2012", "24-DEC-2012", "", "", "AFTER STANDING FOR 1 MINUTE", "AFTER STANDING FOR 1 MINUTE", "AFTER STANDING FOR 1 MINUTE", 816, 816, 816]
["CDISCPILOT01", "701", "1133", "STANDING", "STANDING", "STANDING", "56", "", "62", "146", "", "", "mmHg", "", "BEATS/MIN", "mmHg", "", "", "", "", "", "", "", "", "", "WEEK 8", "24-DEC-2012", "24-DEC-2012", "", "24-DEC-2012", "24-DEC-2012", "", "", "AFTER STANDING FOR 3 MINUTES", "AFTER STANDING FOR 3 MINUTES", "AFTER STANDING FOR 3 MINUTES", 817, 817, 817]
["CDISCPILOT01", "701", "1133", "SUPINE", "SUPINE", "SUPINE", "56", "", "79", "129", "98.4", "168.0", "mmHg", "", "BEATS/MIN", "mmHg", "F", "LB", "", "", "", "", "", "", "ORAL CAVITY", "WEEK 12", "22-JAN-2013", "22-JAN-2013", "", "22-JAN-2013", "22-JAN-2013", "22-JAN-2013", "22-JAN-2013", "AFTER LYING DOWN FOR 5 MINUTES", "AFTER LYING DOWN FOR 5 MINUTES", "AFTER LYING DOWN FOR 5 MINUTES", 815, 815, 815]
["CDISCPILOT01", "701", "1133", "STANDING", "STANDING", "STANDING", "60", "", "88", "145", "", "", "mmHg", "", "BEATS/MIN", "mmHg", "", "", "", "", "", "", "", "", "", "WEEK 12", "22-JAN-2013", "22-JAN-2013", "", "22-JAN-2013", "22-JAN-2013", "", "", "AFTER STANDING FOR 1 MINUTE", "AFTER STANDING FOR 1 MINUTE", "AFTER STANDING FOR 1 MINUTE", 816, 816, 816]
["CDISCPILOT01", "701", "1133", "STANDING", "STANDING", "STANDING", "60", "", "82", "146", "", "", "mmHg", "", "BEATS/MIN", "mmHg", "", "", "", "", "", "", "", "", "", "WEEK 12", "22-JAN-2013", "22-JAN-2013", "", "22-JAN-2013", "22-JAN-2013", "", "", "AFTER STANDING FOR 3 MINUTES", "AFTER STANDING FOR 3 MINUTES", "AFTER STANDING FOR 3 MINUTES", 817, 817, 817]
["CDISCPILOT01", "701", "1133", "SUPINE", "SUPINE", "SUPINE", "56", "", "70", "169", "98.3", "166.0", "mmHg", "", "BEATS/MIN", "mmHg", "F", "LB", "", "", "", "", "", "", "ORAL CAVITY", "WEEK 16", "18-FEB-2013", "18-FEB-2013", "", "18-FEB-2013", "18-FEB-2013", "18-FEB-2013", "18-FEB-2013", "AFTER LYING DOWN FOR 5 MINUTES", "AFTER LYING DOWN FOR 5 MINUTES", "AFTER LYING DOWN FOR 5 MINUTES", 815, 815, 815]
["CDISCPILOT01", "701", "1133", "STANDING", "STANDING", "STANDING", "60", "", "72", "153", "", "", "mmHg", "", "BEATS/MIN", "mmHg", "", "", "", "", "", "", "", "", "", "WEEK 16", "18-FEB-2013", "18-FEB-2013", "", "18-FEB-2013", "18-FEB-2013", "", "", "AFTER STANDING FOR 1 MINUTE", "AFTER STANDING FOR 1 MINUTE", "AFTER STANDING FOR 1 MINUTE", 816, 816, 816]
["CDISCPILOT01", "701", "1133", "STANDING", "STANDING", "STANDING", "79", "", "74", "144", "", "", "mmHg", "", "BEATS/MIN", "mmHg", "", "", "", "", "", "", "", "", "", "WEEK 16", "18-FEB-2013", "18-FEB-2013", "", "18-FEB-2013", "18-FEB-2013", "", "", "AFTER STANDING FOR 3 MINUTES", "AFTER STANDING FOR 3 MINUTES", "AFTER STANDING FOR 3 MINUTES", 817, 817, 817]
["CDISCPILOT01", "701", "1133", "SUPINE", "SUPINE", "SUPINE", "77", "", "77", "159", "97.6", "164", "mmHg", "", "BEATS/MIN", "mmHg", "F", "LB", "", "", "", "", "", "", "ORAL CAVITY", "WEEK 20", "18-MAR-2013", "18-MAR-2013", "", "18-MAR-2013", "18-MAR-2013", "18-MAR-2013", "18-MAR-2013", "AFTER LYING DOWN FOR 5 MINUTES", "AFTER LYING DOWN FOR 5 MINUTES", "AFTER LYING DOWN FOR 5 MINUTES", 815, 815, 815]
["CDISCPILOT01", "701", "1133", "STANDING", "STANDING", "STANDING", "58", "", "81", "158", "", "", "mmHg", "", "BEATS/MIN", "mmHg", "", "", "", "", "", "", "", "", "", "WEEK 20", "18-MAR-2013", "18-MAR-2013", "", "18-MAR-2013", "18-MAR-2013", "", "", "AFTER STANDING FOR 1 MINUTE", "AFTER STANDING FOR 1 MINUTE", "AFTER STANDING FOR 1 MINUTE", 816, 816, 816]
["CDISCPILOT01", "701", "1133", "STANDING", "STANDING", "STANDING", "64", "", "80", "130", "", "", "mmHg", "", "BEATS/MIN", "mmHg", "", "", "", "", "", "", "", "", "", "WEEK 20", "18-MAR-2013", "18-MAR-2013", "", "18-MAR-2013", "18-MAR-2013", "", "", "AFTER STANDING FOR 3 MINUTES", "AFTER STANDING FOR 3 MINUTES", "AFTER STANDING FOR 3 MINUTES", 817, 817, 817]
["CDISCPILOT01", "701", "1133", "SUPINE", "SUPINE", "SUPINE", "73", "", "57", "147", "098.9", "160.0", "mmHg", "", "BEATS/MIN", "mmHg", "F", "LB", "", "", "", "", "", "", "ORAL CAVITY", "WEEK 24", "18-APR-2013", "18-APR-2013", "", "18-APR-2013", "18-APR-2013", "18-APR-2013", "18-APR-2013", "AFTER LYING DOWN FOR 5 MINUTES", "AFTER LYING DOWN FOR 5 MINUTES", "AFTER LYING DOWN FOR 5 MINUTES", 815, 815, 815]
["CDISCPILOT01", "701", "1133", "STANDING", "STANDING", "STANDING", "64", "", "61", "137", "", "", "mmHg", "", "BEATS/MIN", "mmHg", "", "", "", "", "", "", "", "", "", "WEEK 24", "18-APR-2013", "18-APR-2013", "", "18-APR-2013", "18-APR-2013", "", "", "AFTER STANDING FOR 1 MINUTE", "AFTER STANDING FOR 1 MINUTE", "AFTER STANDING FOR 1 MINUTE", 816, 816, 816]
["CDISCPILOT01", "701", "1133", "STANDING", "STANDING", "STANDING", "60", "", "57", "138", "", "", "mmHg", "", "BEATS/MIN", "mmHg", "", "", "", "", "", "", "", "", "", "WEEK 24", "18-APR-2013", "18-APR-2013", "", "18-APR-2013", "18-APR-2013", "", "", "AFTER STANDING FOR 3 MINUTES", "AFTER STANDING FOR 3 MINUTES", "AFTER STANDING FOR 3 MINUTES", 817, 817, 817]
["CDISCPILOT01", "701", "1133", "SUPINE", "SUPINE", "SUPINE", "66", "", "64", "137", "98.5", "161.0", "mmHg", "", "BEATS/MIN", "mmHg", "F", "LB", "", "", "", "", "", "", "ORAL CAVITY", "WEEK 26", "29-APR-2013", "29-APR-2013", "", "29-APR-2013", "29-APR-2013", "29-APR-2013", "29-APR-2013", "AFTER LYING DOWN FOR 5 MINUTES", "AFTER LYING DOWN FOR 5 MINUTES", "AFTER LYING DOWN FOR 5 MINUTES", 815, 815, 815]
["CDISCPILOT01", "701", "1133", "STANDING", "STANDING", "STANDING", "60", "", "72", "137", "", "", "mmHg", "", "BEATS/MIN", "mmHg", "", "", "", "", "", "", "", "", "", "WEEK 26", "29-APR-2013", "29-APR-2013", "", "29-APR-2013", "29-APR-2013", "", "", "AFTER STANDING FOR 1 MINUTE", "AFTER STANDING FOR 1 MINUTE", "AFTER STANDING FOR 1 MINUTE", 816, 816, 816]
["CDISCPILOT01", "701", "1133", "STANDING", "STANDING", "STANDING", "60", "", "72", "122", "", "", "mmHg", "", "BEATS/MIN", "mmHg", "", "", "", "", "", "", "", "", "", "WEEK 26", "29-APR-2013", "29-APR-2013", "", "29-APR-2013", "29-APR-2013", "", "", "AFTER STANDING FOR 3 MINUTES", "AFTER STANDING FOR 3 MINUTES", "AFTER STANDING FOR 3 MINUTES", 817, 817, 817]
["CDISCPILOT01", "701", "1146", "SUPINE", "SUPINE", "SUPINE", "48", "58.0", "65", "114", "99.2", "119.0", "mmHg", "IN", "BEATS/MIN", "mmHg", "F", "LB", "", "", "", "", "", "", "ORAL CAVITY", "SCREENING 1", "07-MAY-2013", "07-MAY-2013", "07-MAY-2013", "07-MAY-2013", "07-MAY-2013", "07-MAY-2013", "07-MAY-2013", "AFTER LYING DOWN FOR 5 MINUTES", "AFTER LYING DOWN FOR 5 MINUTES", "AFTER LYING DOWN FOR 5 MINUTES", 815, 815, 815]
["CDISCPILOT01", "701", "1146", "STANDING", "STANDING", "STANDING", "56", "", "76", "122", "", "", "mmHg", "", "BEATS/MIN", "mmHg", "", "", "", "", "", "", "", "", "", "SCREENING 1", "07-MAY-2013", "07-MAY-2013", "", "07-MAY-2013", "07-MAY-2013", "", "", "AFTER STANDING FOR 1 MINUTE", "AFTER STANDING FOR 1 MINUTE", "AFTER STANDING FOR 1 MINUTE", 816, 816, 816]
["CDISCPILOT01", "701", "1146", "STANDING", "STANDING", "STANDING", "59", "", "79", "122", "", "", "mmHg", "", "BEATS/MIN", "mmHg", "", "", "", "", "", "", "", "", "", "SCREENING 1", "07-MAY-2013", "07-MAY-2013", "", "07-MAY-2013", "07-MAY-2013", "", "", "AFTER STANDING FOR 3 MINUTES", "AFTER STANDING FOR 3 MINUTES", "AFTER STANDING FOR 3 MINUTES", 817, 817, 817]
["CDISCPILOT01", "701", "1146", "SUPINE", "SUPINE", "SUPINE", "50", "", "62", "114", "97.3", "", "mmHg", "", "BEATS/MIN", "mmHg", "F", "", "", "", "", "", "", "", "ORAL CAVITY", "SCREENING 2", "18-MAY-2013", "18-MAY-2013", "", "18-MAY-2013", "18-MAY-2013", "18-MAY-2013", "", "AFTER LYING DOWN FOR 5 MINUTES", "AFTER LYING DOWN FOR 5 MINUTES", "AFTER LYING DOWN FOR 5 MINUTES", 815, 815, 815]
["CDISCPILOT01", "701", "1146", "STANDING", "STANDING", "STANDING", "54", "", "80", "107", "", "", "mmHg", "", "BEATS/MIN", "mmHg", "", "", "", "", "", "", "", "", "", "SCREENING 2", "18-MAY-2013", "18-MAY-2013", "", "18-MAY-2013", "18-MAY-2013", "", "", "AFTER STANDING FOR 1 MINUTE", "AFTER STANDING FOR 1 MINUTE", "AFTER STANDING FOR 1 MINUTE", 816, 816, 816]
["CDISCPILOT01", "701", "1146", "STANDING", "STANDING", "STANDING", "58", "", "74", "108", "", "", "mmHg", "", "BEATS/MIN", "mmHg", "", "", "", "", "", "", "", "", "", "SCREENING 2", "18-MAY-2013", "18-MAY-2013", "", "18-MAY-2013", "18-MAY-2013", "", "", "AFTER STANDING FOR 3 MINUTES", "AFTER STANDING FOR 3 MINUTES", "AFTER STANDING FOR 3 MINUTES", 817, 817, 817]
["CDISCPILOT01", "701", "1146", "SUPINE", "SUPINE", "SUPINE", "51", "", "67", "128", "97.6", "119.0", "mmHg", "", "BEATS/MIN", "mmHg", "F", "LB", "", "", "", "", "", "", "ORAL CAVITY", "BASELINE", "20-MAY-2013", "20-MAY-2013", "", "20-MAY-2013", "20-MAY-2013", "20-MAY-2013", "20-MAY-2013", "AFTER LYING DOWN FOR 5 MINUTES", "AFTER LYING DOWN FOR 5 MINUTES", "AFTER LYING DOWN FOR 5 MINUTES", 815, 815, 815]
["CDISCPILOT01", "701", "1146", "STANDING", "STANDING", "STANDING", "57", "", "72", "124", "", "", "mmHg", "", "BEATS/MIN", "mmHg", "", "", "", "", "", "", "", "", "", "BASELINE", "20-MAY-2013", "20-MAY-2013", "", "20-MAY-2013", "20-MAY-2013", "", "", "AFTER STANDING FOR 1 MINUTE", "AFTER STANDING FOR 1 MINUTE", "AFTER STANDING FOR 1 MINUTE", 816, 816, 816]
["CDISCPILOT01", "701", "1146", "STANDING", "STANDING", "STANDING", "51", "", "68", "115", "", "", "mmHg", "", "BEATS/MIN", "mmHg", "", "", "", "", "", "", "", "", "", "BASELINE", "20-MAY-2013", "20-MAY-2013", "", "20-MAY-2013", "20-MAY-2013", "", "", "AFTER STANDING FOR 3 MINUTES", "AFTER STANDING FOR 3 MINUTES", "AFTER STANDING FOR 3 MINUTES", 817, 817, 817]
["CDISCPILOT01", "701", "1146", "SUPINE", "SUPINE", "SUPINE", "51", "", "65", "113", "97.8", "", "mmHg", "", "BEATS/MIN", "mmHg", "F", "", "", "", "", "", "", "", "ORAL CAVITY", "AMBUL ECG PLACEMENT", "02-JUN-2013", "02-JUN-2013", "", "02-JUN-2013", "02-JUN-2013", "02-JUN-2013", "", "AFTER LYING DOWN FOR 5 MINUTES", "AFTER LYING DOWN FOR 5 MINUTES", "AFTER LYING DOWN FOR 5 MINUTES", 815, 815, 815]
["CDISCPILOT01", "701", "1146", "STANDING", "STANDING", "STANDING", "52", "", "70", "136", "", "", "mmHg", "", "BEATS/MIN", "mmHg", "", "", "", "", "", "", "", "", "", "AMBUL ECG PLACEMENT", "02-JUN-2013", "02-JUN-2013", "", "02-JUN-2013", "02-JUN-2013", "", "", "AFTER STANDING FOR 1 MINUTE", "AFTER STANDING FOR 1 MINUTE", "AFTER STANDING FOR 1 MINUTE", 816, 816, 816]
["CDISCPILOT01", "701", "1146", "STANDING", "STANDING", "STANDING", "62", "", "67", "121", "", "", "mmHg", "", "BEATS/MIN", "mmHg", "", "", "", "", "", "", "", "", "", "AMBUL ECG PLACEMENT", "02-JUN-2013", "02-JUN-2013", "", "02-JUN-2013", "02-JUN-2013", "", "", "AFTER STANDING FOR 3 MINUTES", "AFTER STANDING FOR 3 MINUTES", "AFTER STANDING FOR 3 MINUTES", 817, 817, 817]
["CDISCPILOT01", "701", "1146", "SUPINE", "SUPINE", "SUPINE", "57", "", "62", "108", "97.9", "120.0", "mmHg", "", "BEATS/MIN", "mmHg", "F", "LB", "", "", "", "", "", "", "ORAL CAVITY", "WEEK 2", "03-JUN-2013", "03-JUN-2013", "", "03-JUN-2013", "03-JUN-2013", "03-JUN-2013", "03-JUN-2013", "AFTER LYING DOWN FOR 5 MINUTES", "AFTER LYING DOWN FOR 5 MINUTES", "AFTER LYING DOWN FOR 5 MINUTES", 815, 815, 815]
["CDISCPILOT01", "701", "1146", "STANDING", "STANDING", "STANDING", "43", "", "70", "104", "", "", "mmHg", "", "BEATS/MIN", "mmHg", "", "", "", "", "", "", "", "", "", "WEEK 2", "03-JUN-2013", "03-JUN-2013", "", "03-JUN-2013", "03-JUN-2013", "", "", "AFTER STANDING FOR 1 MINUTE", "AFTER STANDING FOR 1 MINUTE", "AFTER STANDING FOR 1 MINUTE", 816, 816, 816]
["CDISCPILOT01", "701", "1146", "STANDING", "STANDING", "STANDING", "58", "", "69", "116", "", "", "mmHg", "", "BEATS/MIN", "mmHg", "", "", "", "", "", "", "", "", "", "WEEK 2", "03-JUN-2013", "03-JUN-2013", "", "03-JUN-2013", "03-JUN-2013", "", "", "AFTER STANDING FOR 3 MINUTES", "AFTER STANDING FOR 3 MINUTES", "AFTER STANDING FOR 3 MINUTES", 817, 817, 817]
["CDISCPILOT01", "701", "1146", "SUPINE", "SUPINE", "SUPINE", "55", "", "68", "121", "97.4", "120.0", "mmHg", "", "BEATS/MIN", "mmHg", "F", "LB", "", "", "", "", "", "", "ORAL CAVITY", "WEEK 4", "16-JUN-2013", "16-JUN-2013", "", "16-JUN-2013", "16-JUN-2013", "16-JUN-2013", "16-JUN-2013", "AFTER LYING DOWN FOR 5 MINUTES", "AFTER LYING DOWN FOR 5 MINUTES", "AFTER LYING DOWN FOR 5 MINUTES", 815, 815, 815]
["CDISCPILOT01", "701", "1146", "STANDING", "STANDING", "STANDING", "59", "", "73", "129", "", "", "mmHg", "", "BEATS/MIN", "mmHg", "", "", "", "", "", "", "", "", "", "WEEK 4", "16-JUN-2013", "16-JUN-2013", "", "16-JUN-2013", "16-JUN-2013", "", "", "AFTER STANDING FOR 1 MINUTE", "AFTER STANDING FOR 1 MINUTE", "AFTER STANDING FOR 1 MINUTE", 816, 816, 816]
["CDISCPILOT01", "701", "1146", "STANDING", "STANDING", "STANDING", "56", "", "73", "122", "", "", "mmHg", "", "BEATS/MIN", "mmHg", "", "", "", "", "", "", "", "", "", "WEEK 4", "16-JUN-2013", "16-JUN-2013", "", "16-JUN-2013", "16-JUN-2013", "", "", "AFTER STANDING FOR 3 MINUTES", "AFTER STANDING FOR 3 MINUTES", "AFTER STANDING FOR 3 MINUTES", 817, 817, 817]
["CDISCPILOT01", "701", "1146", "SUPINE", "SUPINE", "SUPINE", "45", "", "68", "108", "98.6", "", "mmHg", "", "BEATS/MIN", "mmHg", "F", "", "", "", "", "", "", "", "ORAL CAVITY", "AMBUL ECG REMOVAL", "18-JUN-2013", "18-JUN-2013", "", "18-JUN-2013", "18-JUN-2013", "18-JUN-2013", "", "AFTER LYING DOWN FOR 5 MINUTES", "AFTER LYING DOWN FOR 5 MINUTES", "AFTER LYING DOWN FOR 5 MINUTES", 815, 815, 815]
["CDISCPILOT01", "701", "1146", "STANDING", "STANDING", "STANDING", "60", "", "72", "115", "", "", "mmHg", "", "BEATS/MIN", "mmHg", "", "", "", "", "", "", "", "", "", "AMBUL ECG REMOVAL", "18-JUN-2013", "18-JUN-2013", "", "18-JUN-2013", "18-JUN-2013", "", "", "AFTER STANDING FOR 1 MINUTE", "AFTER STANDING FOR 1 MINUTE", "AFTER STANDING FOR 1 MINUTE", 816, 816, 816]
["CDISCPILOT01", "701", "1146", "STANDING", "STANDING", "STANDING", "56", "", "72", "122", "", "", "mmHg", "", "BEATS/MIN", "mmHg", "", "", "", "", "", "", "", "", "", "AMBUL ECG REMOVAL", "18-JUN-2013", "18-JUN-2013", "", "18-JUN-2013", "18-JUN-2013", "", "", "AFTER STANDING FOR 3 MINUTES", "AFTER STANDING FOR 3 MINUTES", "AFTER STANDING FOR 3 MINUTES", 817, 817, 817]
["CDISCPILOT01", "701", "1146", "SUPINE", "SUPINE", "SUPINE", "56", "", "52", "115", "98.1", "118.5", "mmHg", "", "BEATS/MIN", "mmHg", "F", "LB", "", "", "", "", "", "", "ORAL CAVITY", "WEEK 6", "30-JUN-2013", "30-JUN-2013", "", "30-JUN-2013", "30-JUN-2013", "30-JUN-2013", "30-JUN-2013", "AFTER LYING DOWN FOR 5 MINUTES", "AFTER LYING DOWN FOR 5 MINUTES", "AFTER LYING DOWN FOR 5 MINUTES", 815, 815, 815]
["CDISCPILOT01", "701", "1146", "STANDING", "STANDING", "STANDING", "60", "", "60", "107", "", "", "mmHg", "", "BEATS/MIN", "mmHg", "", "", "", "", "", "", "", "", "", "WEEK 6", "30-JUN-2013", "30-JUN-2013", "", "30-JUN-2013", "30-JUN-2013", "", "", "AFTER STANDING FOR 1 MINUTE", "AFTER STANDING FOR 1 MINUTE", "AFTER STANDING FOR 1 MINUTE", 816, 816, 816]
["CDISCPILOT01", "701", "1146", "STANDING", "STANDING", "STANDING", "54", "", "67", "116", "", "", "mmHg", "", "BEATS/MIN", "mmHg", "", "", "", "", "", "", "", "", "", "WEEK 6", "30-JUN-2013", "30-JUN-2013", "", "30-JUN-2013", "30-JUN-2013", "", "", "AFTER STANDING FOR 3 MINUTES", "AFTER STANDING FOR 3 MINUTES", "AFTER STANDING FOR 3 MINUTES", 817, 817, 817]
["CDISCPILOT01", "701", "1148", "SUPINE", "SUPINE", "SUPINE", "69", "069.0", "50", "116", "97.5", "190.0", "mmHg", "IN", "BEATS/MIN", "mmHg", "F", "LB", "", "", "", "", "", "", "ORAL CAVITY", "SCREENING 1", "14-AUG-2013", "14-AUG-2013", "14-AUG-2013", "14-AUG-2013", "14-AUG-2013", "14-AUG-2013", "14-AUG-2013", "AFTER LYING DOWN FOR 5 MINUTES", "AFTER LYING DOWN FOR 5 MINUTES", "AFTER LYING DOWN FOR 5 MINUTES", 815, 815, 815]
["CDISCPILOT01", "701", "1148", "STANDING", "STANDING", "STANDING", "60", "", "66", "115", "", "", "mmHg", "", "BEATS/MIN", "mmHg", "", "", "", "", "", "", "", "", "", "SCREENING 1", "14-AUG-2013", "14-AUG-2013", "", "14-AUG-2013", "14-AUG-2013", "", "", "AFTER STANDING FOR 1 MINUTE", "AFTER STANDING FOR 1 MINUTE", "AFTER STANDING FOR 1 MINUTE", 816, 816, 816]
["CDISCPILOT01", "701", "1148", "STANDING", "STANDING", "STANDING", "68", "", "69", "107", "", "", "mmHg", "", "BEATS/MIN", "mmHg", "", "", "", "", "", "", "", "", "", "SCREENING 1", "14-AUG-2013", "14-AUG-2013", "", "14-AUG-2013", "14-AUG-2013", "", "", "AFTER STANDING FOR 3 MINUTES", "AFTER STANDING FOR 3 MINUTES", "AFTER STANDING FOR 3 MINUTES", 817, 817, 817]
["CDISCPILOT01", "701", "1148", "SUPINE", "SUPINE", "SUPINE", "76", "", "54", "115", "97.9", "", "mmHg", "", "BEATS/MIN", "mmHg", "F", "", "", "", "", "", "", "", "ORAL CAVITY", "SCREENING 2", "21-AUG-2013", "21-AUG-2013", "", "21-AUG-2013", "21-AUG-2013", "21-AUG-2013", "", "AFTER LYING DOWN FOR 5 MINUTES", "AFTER LYING DOWN FOR 5 MINUTES", "AFTER LYING DOWN FOR 5 MINUTES", 815, 815, 815]
["CDISCPILOT01", "701", "1148", "STANDING", "STANDING", "STANDING", "68", "", "57", "106", "", "", "mmHg", "", "BEATS/MIN", "mmHg", "", "", "", "", "", "", "", "", "", "SCREENING 2", "21-AUG-2013", "21-AUG-2013", "", "21-AUG-2013", "21-AUG-2013", "", "", "AFTER STANDING FOR 1 MINUTE", "AFTER STANDING FOR 1 MINUTE", "AFTER STANDING FOR 1 MINUTE", 816, 816, 816]
["CDISCPILOT01", "701", "1148", "STANDING", "STANDING", "STANDING", "69", "", "67", "100", "", "", "mmHg", "", "BEATS/MIN", "mmHg", "", "", "", "", "", "", "", "", "", "SCREENING 2", "21-AUG-2013", "21-AUG-2013", "", "21-AUG-2013", "21-AUG-2013", "", "", "AFTER STANDING FOR 3 MINUTES", "AFTER STANDING FOR 3 MINUTES", "AFTER STANDING FOR 3 MINUTES", 817, 817, 817]
["CDISCPILOT01", "701", "1148", "SUPINE", "SUPINE", "SUPINE", "70", "", "58", "116", "97.8", "192.0", "mmHg", "", "BEATS/MIN", "mmHg", "F", "LB", "", "", "", "", "", "", "ORAL CAVITY", "BASELINE", "23-AUG-2013", "23-AUG-2013", "", "23-AUG-2013", "23-AUG-2013", "23-AUG-2013", "23-AUG-2013", "AFTER LYING DOWN FOR 5 MINUTES", "AFTER LYING DOWN FOR 5 MINUTES", "AFTER LYING DOWN FOR 5 MINUTES", 815, 815, 815]
["CDISCPILOT01", "701", "1148", "STANDING", "STANDING", "STANDING", "58", "", "73", "116", "", "", "mmHg", "", "BEATS/MIN", "mmHg", "", "", "", "", "", "", "", "", "", "BASELINE", "23-AUG-2013", "23-AUG-2013", "", "23-AUG-2013", "23-AUG-2013", "", "", "AFTER STANDING FOR 1 MINUTE", "AFTER STANDING FOR 1 MINUTE", "AFTER STANDING FOR 1 MINUTE", 816, 816, 816]
["CDISCPILOT01", "701", "1148", "STANDING", "STANDING", "STANDING", "76", "", "70", "122", "", "", "mmHg", "", "BEATS/MIN", "mmHg", "", "", "", "", "", "", "", "", "", "BASELINE", "23-AUG-2013", "23-AUG-2013", "", "23-AUG-2013", "23-AUG-2013", "", "", "AFTER STANDING FOR 3 MINUTES", "AFTER STANDING FOR 3 MINUTES", "AFTER STANDING FOR 3 MINUTES", 817, 817, 817]
["CDISCPILOT01", "701", "1148", "SUPINE", "SUPINE", "SUPINE", "80", "", "75", "132", "97.7", "", "mmHg", "", "BEATS/MIN", "mmHg", "F", "", "", "", "", "", "", "", "ORAL CAVITY", "AMBUL ECG PLACEMENT", "04-SEP-2013", "04-SEP-2013", "", "04-SEP-2013", "04-SEP-2013", "04-SEP-2013", "", "AFTER LYING DOWN FOR 5 MINUTES", "AFTER LYING DOWN FOR 5 MINUTES", "AFTER LYING DOWN FOR 5 MINUTES", 815, 815, 815]
["CDISCPILOT01", "701", "1148", "STANDING", "STANDING", "STANDING", "73", "", "80", "108", "", "", "mmHg", "", "BEATS/MIN", "mmHg", "", "", "", "", "", "", "", "", "", "AMBUL ECG PLACEMENT", "04-SEP-2013", "04-SEP-2013", "", "04-SEP-2013", "04-SEP-2013", "", "", "AFTER STANDING FOR 1 MINUTE", "AFTER STANDING FOR 1 MINUTE", "AFTER STANDING FOR 1 MINUTE", 816, 816, 816]
["CDISCPILOT01", "701", "1148", "STANDING", "STANDING", "STANDING", "67", "", "80", "117", "", "", "mmHg", "", "BEATS/MIN", "mmHg", "", "", "", "", "", "", "", "", "", "AMBUL ECG PLACEMENT", "04-SEP-2013", "04-SEP-2013", "", "04-SEP-2013", "04-SEP-2013", "", "", "AFTER STANDING FOR 3 MINUTES", "AFTER STANDING FOR 3 MINUTES", "AFTER STANDING FOR 3 MINUTES", 817, 817, 817]
["CDISCPILOT01", "701", "1148", "SUPINE", "SUPINE", "SUPINE", "69", "", "74", "122", "98.5", "193.0", "mmHg", "", "BEATS/MIN", "mmHg", "F", "LB", "", "", "", "", "", "", "ORAL CAVITY", "WEEK 2", "05-SEP-2013", "05-SEP-2013", "", "05-SEP-2013", "05-SEP-2013", "05-SEP-2013", "05-SEP-2013", "AFTER LYING DOWN FOR 5 MINUTES", "AFTER LYING DOWN FOR 5 MINUTES", "AFTER LYING DOWN FOR 5 MINUTES", 815, 815, 815]
["CDISCPILOT01", "701", "1148", "STANDING", "STANDING", "STANDING", "66", "", "86", "113", "", "", "mmHg", "", "BEATS/MIN", "mmHg", "", "", "", "", "", "", "", "", "", "WEEK 2", "05-SEP-2013", "05-SEP-2013", "", "05-SEP-2013", "05-SEP-2013", "", "", "AFTER STANDING FOR 1 MINUTE", "AFTER STANDING FOR 1 MINUTE", "AFTER STANDING FOR 1 MINUTE", 816, 816, 816]
["CDISCPILOT01", "701", "1148", "STANDING", "STANDING", "STANDING", "73", "", "81", "115", "", "", "mmHg", "", "BEATS/MIN", "mmHg", "", "", "", "", "", "", "", "", "", "WEEK 2", "05-SEP-2013", "05-SEP-2013", "", "05-SEP-2013", "05-SEP-2013", "", "", "AFTER STANDING FOR 3 MINUTES", "AFTER STANDING FOR 3 MINUTES", "AFTER STANDING FOR 3 MINUTES", 817, 817, 817]
["CDISCPILOT01", "701", "1148", "SUPINE", "SUPINE", "SUPINE", "69", "", "72", "115", "98.7", "196.0", "mmHg", "", "BEATS/MIN", "mmHg", "F", "LB", "", "", "", "", "", "", "ORAL CAVITY", "WEEK 4", "19-SEP-2013", "19-SEP-2013", "", "19-SEP-2013", "19-SEP-2013", "19-SEP-2013", "19-SEP-2013", "AFTER LYING DOWN FOR 5 MINUTES", "AFTER LYING DOWN FOR 5 MINUTES", "AFTER LYING DOWN FOR 5 MINUTES", 815, 815, 815]
["CDISCPILOT01", "701", "1148", "STANDING", "STANDING", "STANDING", "65", "", "83", "101", "", "", "mmHg", "", "BEATS/MIN", "mmHg", "", "", "", "", "", "", "", "", "", "WEEK 4", "19-SEP-2013", "19-SEP-2013", "", "19-SEP-2013", "19-SEP-2013", "", "", "AFTER STANDING FOR 1 MINUTE", "AFTER STANDING FOR 1 MINUTE", "AFTER STANDING FOR 1 MINUTE", 816, 816, 816]
["CDISCPILOT01", "701", "1148", "STANDING", "STANDING", "STANDING", "61", "", "84", "95", "", "", "mmHg", "", "BEATS/MIN", "mmHg", "", "", "", "", "", "", "", "", "", "WEEK 4", "19-SEP-2013", "19-SEP-2013", "", "19-SEP-2013", "19-SEP-2013", "", "", "AFTER STANDING FOR 3 MINUTES", "AFTER STANDING FOR 3 MINUTES", "AFTER STANDING FOR 3 MINUTES", 817, 817, 817]
["CDISCPILOT01", "701", "1148", "SUPINE", "SUPINE", "SUPINE", "76", "", "70", "123", "97.8", "", "mmHg", "", "BEATS/MIN", "mmHg", "F", "", "", "", "", "", "", "", "ORAL CAVITY", "AMBUL ECG REMOVAL", "21-SEP-2013", "21-SEP-2013", "", "21-SEP-2013", "21-SEP-2013", "21-SEP-2013", "", "AFTER LYING DOWN FOR 5 MINUTES", "AFTER LYING DOWN FOR 5 MINUTES", "AFTER LYING DOWN FOR 5 MINUTES", 815, 815, 815]
["CDISCPILOT01", "701", "1148", "STANDING", "STANDING", "STANDING", "77", "", "76", "116", "", "", "mmHg", "", "BEATS/MIN", "mmHg", "", "", "", "", "", "", "", "", "", "AMBUL ECG REMOVAL", "21-SEP-2013", "21-SEP-2013", "", "21-SEP-2013", "21-SEP-2013", "", "", "AFTER STANDING FOR 1 MINUTE", "AFTER STANDING FOR 1 MINUTE", "AFTER STANDING FOR 1 MINUTE", 816, 816, 816]
["CDISCPILOT01", "701", "1148", "STANDING", "STANDING", "STANDING", "79", "", "77", "118", "", "", "mmHg", "", "BEATS/MIN", "mmHg", "", "", "", "", "", "", "", "", "", "AMBUL ECG REMOVAL", "21-SEP-2013", "21-SEP-2013", "", "21-SEP-2013", "21-SEP-2013", "", "", "AFTER STANDING FOR 3 MINUTES", "AFTER STANDING FOR 3 MINUTES", "AFTER STANDING FOR 3 MINUTES", 817, 817, 817]
["CDISCPILOT01", "701", "1148", "SUPINE", "SUPINE", "SUPINE", "76", "", "61", "115", "97.9", "193.0", "mmHg", "", "BEATS/MIN", "mmHg", "F", "LB", "", "", "", "", "", "", "ORAL CAVITY", "WEEK 6", "03-OCT-2013", "03-OCT-2013", "", "03-OCT-2013", "03-OCT-2013", "03-OCT-2013", "03-OCT-2013", "AFTER LYING DOWN FOR 5 MINUTES", "AFTER LYING DOWN FOR 5 MINUTES", "AFTER LYING DOWN FOR 5 MINUTES", 815, 815, 815]
["CDISCPILOT01", "701", "1148", "STANDING", "STANDING", "STANDING", "60", "", "73", "106", "", "", "mmHg", "", "BEATS/MIN", "mmHg", "", "", "", "", "", "", "", "", "", "WEEK 6", "03-OCT-2013", "03-OCT-2013", "", "03-OCT-2013", "03-OCT-2013", "", "", "AFTER STANDING FOR 1 MINUTE", "AFTER STANDING FOR 1 MINUTE", "AFTER STANDING FOR 1 MINUTE", 816, 816, 816]
["CDISCPILOT01", "701", "1148", "STANDING", "STANDING", "STANDING", "70", "", "74", "108", "", "", "mmHg", "", "BEATS/MIN", "mmHg", "", "", "", "", "", "", "", "", "", "WEEK 6", "03-OCT-2013", "03-OCT-2013", "", "03-OCT-2013", "03-OCT-2013", "", "", "AFTER STANDING FOR 3 MINUTES", "AFTER STANDING FOR 3 MINUTES", "AFTER STANDING FOR 3 MINUTES", 817, 817, 817]
["CDISCPILOT01", "701", "1148", "SUPINE", "SUPINE", "SUPINE", "75", "", "70", "122", "97.8", "195.0", "mmHg", "", "BEATS/MIN", "mmHg", "F", "LB", "", "", "", "", "", "", "ORAL CAVITY", "WEEK 8", "18-OCT-2013", "18-OCT-2013", "", "18-OCT-2013", "18-OCT-2013", "18-OCT-2013", "18-OCT-2013", "AFTER LYING DOWN FOR 5 MINUTES", "AFTER LYING DOWN FOR 5 MINUTES", "AFTER LYING DOWN FOR 5 MINUTES", 815, 815, 815]
["CDISCPILOT01", "701", "1148", "STANDING", "STANDING", "STANDING", "75", "", "80", "110", "", "", "mmHg", "", "BEATS/MIN", "mmHg", "", "", "", "", "", "", "", "", "", "WEEK 8", "18-OCT-2013", "18-OCT-2013", "", "18-OCT-2013", "18-OCT-2013", "", "", "AFTER STANDING FOR 1 MINUTE", "AFTER STANDING FOR 1 MINUTE", "AFTER STANDING FOR 1 MINUTE", 816, 816, 816]
["CDISCPILOT01", "701", "1148", "STANDING", "STANDING", "STANDING", "77", "", "77", "116", "", "", "mmHg", "", "BEATS/MIN", "mmHg", "", "", "", "", "", "", "", "", "", "WEEK 8", "18-OCT-2013", "18-OCT-2013", "", "18-OCT-2013", "18-OCT-2013", "", "", "AFTER STANDING FOR 3 MINUTES", "AFTER STANDING FOR 3 MINUTES", "AFTER STANDING FOR 3 MINUTES", 817, 817, 817]
["CDISCPILOT01", "701", "1148", "SUPINE", "SUPINE", "SUPINE", "68", "", "57", "114", "97.8", "195.0", "mmHg", "", "BEATS/MIN", "mmHg", "F", "LB", "", "", "", "", "", "", "ORAL CAVITY", "WEEK 12", "17-NOV-2013", "17-NOV-2013", "", "17-NOV-2013", "17-NOV-2013", "17-NOV-2013", "17-NOV-2013", "AFTER LYING DOWN FOR 5 MINUTES", "AFTER LYING DOWN FOR 5 MINUTES", "AFTER LYING DOWN FOR 5 MINUTES", 815, 815, 815]
["CDISCPILOT01", "701", "1148", "STANDING", "STANDING", "STANDING", "69", "", "65", "107", "", "", "mmHg", "", "BEATS/MIN", "mmHg", "", "", "", "", "", "", "", "", "", "WEEK 12", "17-NOV-2013", "17-NOV-2013", "", "17-NOV-2013", "17-NOV-2013", "", "", "AFTER STANDING FOR 1 MINUTE", "AFTER STANDING FOR 1 MINUTE", "AFTER STANDING FOR 1 MINUTE", 816, 816, 816]
["CDISCPILOT01", "701", "1148", "STANDING", "STANDING", "STANDING", "69", "", "70", "108", "", "", "mmHg", "", "BEATS/MIN", "mmHg", "", "", "", "", "", "", "", "", "", "WEEK 12", "17-NOV-2013", "17-NOV-2013", "", "17-NOV-2013", "17-NOV-2013", "", "", "AFTER STANDING FOR 3 MINUTES", "AFTER STANDING FOR 3 MINUTES", "AFTER STANDING FOR 3 MINUTES", 817, 817, 817]
["CDISCPILOT01", "701", "1148", "SUPINE", "SUPINE", "SUPINE", "68", "", "60", "114", "98.0", "194.0", "mmHg", "", "BEATS/MIN", "mmHg", "F", "LB", "", "", "", "", "", "", "ORAL CAVITY", "WEEK 16", "13-DEC-2013", "13-DEC-2013", "", "13-DEC-2013", "13-DEC-2013", "13-DEC-2013", "13-DEC-2013", "AFTER LYING DOWN FOR 5 MINUTES", "AFTER LYING DOWN FOR 5 MINUTES", "AFTER LYING DOWN FOR 5 MINUTES", 815, 815, 815]
["CDISCPILOT01", "701", "1148", "STANDING", "STANDING", "STANDING", "73", "", "78", "107", "", "", "mmHg", "", "BEATS/MIN", "mmHg", "", "", "", "", "", "", "", "", "", "WEEK 16", "13-DEC-2013", "13-DEC-2013", "", "13-DEC-2013", "13-DEC-2013", "", "", "AFTER STANDING FOR 1 MINUTE", "AFTER STANDING FOR 1 MINUTE", "AFTER STANDING FOR 1 MINUTE", 816, 816, 816]
["CDISCPILOT01", "701", "1148", "STANDING", "STANDING", "STANDING", "76", "", "77", "109", "", "", "mmHg", "", "BEATS/MIN", "mmHg", "", "", "", "", "", "", "", "", "", "WEEK 16", "13-DEC-2013", "13-DEC-2013", "", "13-DEC-2013", "13-DEC-2013", "", "", "AFTER STANDING FOR 3 MINUTES", "AFTER STANDING FOR 3 MINUTES", "AFTER STANDING FOR 3 MINUTES", 817, 817, 817]
["CDISCPILOT01", "701", "1148", "SUPINE", "SUPINE", "SUPINE", "69", "", "52", "116", "97.6", "199.0", "mmHg", "", "BEATS/MIN", "mmHg", "F", "LB", "", "", "", "", "", "", "ORAL CAVITY", "WEEK 20", "10-JAN-2014", "10-JAN-2014", "", "10-JAN-2014", "10-JAN-2014", "10-JAN-2014", "10-JAN-2014", "AFTER LYING DOWN FOR 5 MINUTES", "AFTER LYING DOWN FOR 5 MINUTES", "AFTER LYING DOWN FOR 5 MINUTES", 815, 815, 815]
["CDISCPILOT01", "701", "1148", "STANDING", "STANDING", "STANDING", "63", "", "59", "105", "", "", "mmHg", "", "BEATS/MIN", "mmHg", "", "", "", "", "", "", "", "", "", "WEEK 20", "10-JAN-2014", "10-JAN-2014", "", "10-JAN-2014", "10-JAN-2014", "", "", "AFTER STANDING FOR 1 MINUTE", "AFTER STANDING FOR 1 MINUTE", "AFTER STANDING FOR 1 MINUTE", 816, 816, 816]
["CDISCPILOT01", "701", "1148", "STANDING", "STANDING", "STANDING", "69", "", "59", "102", "", "", "mmHg", "", "BEATS/MIN", "mmHg", "", "", "", "", "", "", "", "", "", "WEEK 20", "10-JAN-2014", "10-JAN-2014", "", "10-JAN-2014", "10-JAN-2014", "", "", "AFTER STANDING FOR 3 MINUTES", "AFTER STANDING FOR 3 MINUTES", "AFTER STANDING FOR 3 MINUTES", 817, 817, 817]
["CDISCPILOT01", "701", "1148", "SUPINE", "SUPINE", "SUPINE", "64", "", "59", "101", "97.6", "199.0", "mmHg", "", "BEATS/MIN", "mmHg", "F", "LB", "", "", "", "", "", "", "ORAL CAVITY", "WEEK 24", "08-FEB-2014", "08-FEB-2014", "", "08-FEB-2014", "08-FEB-2014", "08-FEB-2014", "08-FEB-2014", "AFTER LYING DOWN FOR 5 MINUTES", "AFTER LYING DOWN FOR 5 MINUTES", "AFTER LYING DOWN FOR 5 MINUTES", 815, 815, 815]
["CDISCPILOT01", "701", "1148", "STANDING", "STANDING", "STANDING", "73", "", "74", "96", "", "", "mmHg", "", "BEATS/MIN", "mmHg", "", "", "", "", "", "", "", "", "", "WEEK 24", "08-FEB-2014", "08-FEB-2014", "", "08-FEB-2014", "08-FEB-2014", "", "", "AFTER STANDING FOR 1 MINUTE", "AFTER STANDING FOR 1 MINUTE", "AFTER STANDING FOR 1 MINUTE", 816, 816, 816]
["CDISCPILOT01", "701", "1148", "STANDING", "STANDING", "STANDING", "73", "", "76", "100", "", "", "mmHg", "", "BEATS/MIN", "mmHg", "", "", "", "", "", "", "", "", "", "WEEK 24", "08-FEB-2014", "08-FEB-2014", "", "08-FEB-2014", "08-FEB-2014", "", "", "AFTER STANDING FOR 3 MINUTES", "AFTER STANDING FOR 3 MINUTES", "AFTER STANDING FOR 3 MINUTES", 817, 817, 817]
["CDISCPILOT01", "701", "1148", "SUPINE", "SUPINE", "SUPINE", "68", "", "62", "107", "97.5", "200.0", "mmHg", "", "BEATS/MIN", "mmHg", "F", "LB", "", "", "", "", "", "", "ORAL CAVITY", "WEEK 26", "20-FEB-2014", "20-FEB-2014", "", "20-FEB-2014", "20-FEB-2014", "20-FEB-2014", "20-FEB-2014", "AFTER LYING DOWN FOR 5 MINUTES", "AFTER LYING DOWN FOR 5 MINUTES", "AFTER LYING DOWN FOR 5 MINUTES", 815, 815, 815]
["CDISCPILOT01", "701", "1148", "STANDING", "STANDING", "STANDING", "73", "", "77", "99", "", "", "mmHg", "", "BEATS/MIN", "mmHg", "", "", "", "", "", "", "", "", "", "WEEK 26", "20-FEB-2014", "20-FEB-2014", "", "20-FEB-2014", "20-FEB-2014", "", "", "AFTER STANDING FOR 1 MINUTE", "AFTER STANDING FOR 1 MINUTE", "AFTER STANDING FOR 1 MINUTE", 816, 816, 816]
["CDISCPILOT01", "701", "1148", "STANDING", "STANDING", "STANDING", "68", "", "75", "95", "", "", "mmHg", "", "BEATS/MIN", "mmHg", "", "", "", "", "", "", "", "", "", "WEEK 26", "20-FEB-2014", "20-FEB-2014", "", "20-FEB-2014", "20-FEB-2014", "", "", "AFTER STANDING FOR 3 MINUTES", "AFTER STANDING FOR 3 MINUTES", "AFTER STANDING FOR 3 MINUTES", 817, 817, 817]
["CDISCPILOT01", "701", "1153", "SUPINE", "SUPINE", "SUPINE", "67", "061.5", "80", "144", "098.3", "128.0", "mmHg", "IN", "BEATS/MIN", "mmHg", "F", "LB", "", "", "", "", "", "", "ORAL CAVITY", "SCREENING 1", "06-SEP-2013", "06-SEP-2013", "06-SEP-2013", "06-SEP-2013", "06-SEP-2013", "06-SEP-2013", "06-SEP-2013", "AFTER LYING DOWN FOR 5 MINUTES", "AFTER LYING DOWN FOR 5 MINUTES", "AFTER LYING DOWN FOR 5 MINUTES", 815, 815, 815]
["CDISCPILOT01", "701", "1153", "STANDING", "STANDING", "STANDING", "68", "", "88", "129", "", "", "mmHg", "", "BEATS/MIN", "mmHg", "", "", "", "", "", "", "", "", "", "SCREENING 1", "06-SEP-2013", "06-SEP-2013", "", "06-SEP-2013", "06-SEP-2013", "", "", "AFTER STANDING FOR 1 MINUTE", "AFTER STANDING FOR 1 MINUTE", "AFTER STANDING FOR 1 MINUTE", 816, 816, 816]
["CDISCPILOT01", "701", "1153", "STANDING", "STANDING", "STANDING", "72", "", "86", "130", "", "", "mmHg", "", "BEATS/MIN", "mmHg", "", "", "", "", "", "", "", "", "", "SCREENING 1", "06-SEP-2013", "06-SEP-2013", "", "06-SEP-2013", "06-SEP-2013", "", "", "AFTER STANDING FOR 3 MINUTES", "AFTER STANDING FOR 3 MINUTES", "AFTER STANDING FOR 3 MINUTES", 817, 817, 817]
["CDISCPILOT01", "701", "1153", "SUPINE", "SUPINE", "SUPINE", "68", "", "80", "150", "098.4", "", "mmHg", "", "BEATS/MIN", "mmHg", "F", "", "", "", "", "", "", "", "ORAL CAVITY", "SCREENING 2", "18-SEP-2013", "18-SEP-2013", "", "18-SEP-2013", "18-SEP-2013", "18-SEP-2013", "", "AFTER LYING DOWN FOR 5 MINUTES", "AFTER LYING DOWN FOR 5 MINUTES", "AFTER LYING DOWN FOR 5 MINUTES", 815, 815, 815]
["CDISCPILOT01", "701", "1153", "STANDING", "STANDING", "STANDING", "74", "", "88", "136", "", "", "mmHg", "", "BEATS/MIN", "mmHg", "", "", "", "", "", "", "", "", "", "SCREENING 2", "18-SEP-2013", "18-SEP-2013", "", "18-SEP-2013", "18-SEP-2013", "", "", "AFTER STANDING FOR 1 MINUTE", "AFTER STANDING FOR 1 MINUTE", "AFTER STANDING FOR 1 MINUTE", 816, 816, 816]
["CDISCPILOT01", "701", "1153", "STANDING", "STANDING", "STANDING", "72", "", "86", "142", "", "", "mmHg", "", "BEATS/MIN", "mmHg", "", "", "", "", "", "", "", "", "", "SCREENING 2", "18-SEP-2013", "18-SEP-2013", "", "18-SEP-2013", "18-SEP-2013", "", "", "AFTER STANDING FOR 3 MINUTES", "AFTER STANDING FOR 3 MINUTES", "AFTER STANDING FOR 3 MINUTES", 817, 817, 817]
["CDISCPILOT01", "701", "1153", "SUPINE", "SUPINE", "SUPINE", "60", "", "84", "142", "098.5", "128.0", "mmHg", "", "BEATS/MIN", "mmHg", "F", "LB", "", "", "", "", "", "", "ORAL CAVITY", "BASELINE", "23-SEP-2013", "23-SEP-2013", "", "23-SEP-2013", "23-SEP-2013", "23-SEP-2013", "23-SEP-2013", "AFTER LYING DOWN FOR 5 MINUTES", "AFTER LYING DOWN FOR 5 MINUTES", "AFTER LYING DOWN FOR 5 MINUTES", 815, 815, 815]
["CDISCPILOT01", "701", "1153", "STANDING", "STANDING", "STANDING", "62", "", "89", "137", "", "", "mmHg", "", "BEATS/MIN", "mmHg", "", "", "", "", "", "", "", "", "", "BASELINE", "23-SEP-2013", "23-SEP-2013", "", "23-SEP-2013", "23-SEP-2013", "", "", "AFTER STANDING FOR 1 MINUTE", "AFTER STANDING FOR 1 MINUTE", "AFTER STANDING FOR 1 MINUTE", 816, 816, 816]
["CDISCPILOT01", "701", "1153", "STANDING", "STANDING", "STANDING", "60", "", "86", "138", "", "", "mmHg", "", "BEATS/MIN", "mmHg", "", "", "", "", "", "", "", "", "", "BASELINE", "23-SEP-2013", "23-SEP-2013", "", "23-SEP-2013", "23-SEP-2013", "", "", "AFTER STANDING FOR 3 MINUTES", "AFTER STANDING FOR 3 MINUTES", "AFTER STANDING FOR 3 MINUTES", 817, 817, 817]
["CDISCPILOT01", "701", "1153", "SUPINE", "SUPINE", "SUPINE", "72", "", "82", "146", "098.2", "", "mmHg", "", "BEATS/MIN", "mmHg", "F", "", "", "", "", "", "", "", "ORAL CAVITY", "AMBUL ECG PLACEMENT", "07-OCT-2013", "07-OCT-2013", "", "07-OCT-2013", "07-OCT-2013", "07-OCT-2013", "", "AFTER LYING DOWN FOR 5 MINUTES", "AFTER LYING DOWN FOR 5 MINUTES", "AFTER LYING DOWN FOR 5 MINUTES", 815, 815, 815]
["CDISCPILOT01", "701", "1153", "STANDING", "STANDING", "STANDING", "68", "", "88", "138", "", "", "mmHg", "", "BEATS/MIN", "mmHg", "", "", "", "", "", "", "", "", "", "AMBUL ECG PLACEMENT", "07-OCT-2013", "07-OCT-2013", "", "07-OCT-2013", "07-OCT-2013", "", "", "AFTER STANDING FOR 1 MINUTE", "AFTER STANDING FOR 1 MINUTE", "AFTER STANDING FOR 1 MINUTE", 816, 816, 816]
["CDISCPILOT01", "701", "1153", "STANDING", "STANDING", "STANDING", "74", "", "86", "146", "", "", "mmHg", "", "BEATS/MIN", "mmHg", "", "", "", "", "", "", "", "", "", "AMBUL ECG PLACEMENT", "07-OCT-2013", "07-OCT-2013", "", "07-OCT-2013", "07-OCT-2013", "", "", "AFTER STANDING FOR 3 MINUTES", "AFTER STANDING FOR 3 MINUTES", "AFTER STANDING FOR 3 MINUTES", 817, 817, 817]
["CDISCPILOT01", "701", "1153", "SUPINE", "SUPINE", "SUPINE", "63", "", "72", "142", "098.3", "126.0", "mmHg", "", "BEATS/MIN", "mmHg", "F", "LB", "", "", "", "", "", "", "ORAL CAVITY", "WEEK 2", "08-OCT-2013", "08-OCT-2013", "", "08-OCT-2013", "08-OCT-2013", "08-OCT-2013", "08-OCT-2013", "AFTER LYING DOWN FOR 5 MINUTES", "AFTER LYING DOWN FOR 5 MINUTES", "AFTER LYING DOWN FOR 5 MINUTES", 815, 815, 815]
["CDISCPILOT01", "701", "1153", "STANDING", "STANDING", "STANDING", "52", "", "74", "154", "", "", "mmHg", "", "BEATS/MIN", "mmHg", "", "", "", "", "", "", "", "", "", "WEEK 2", "08-OCT-2013", "08-OCT-2013", "", "08-OCT-2013", "08-OCT-2013", "", "", "AFTER STANDING FOR 1 MINUTE", "AFTER STANDING FOR 1 MINUTE", "AFTER STANDING FOR 1 MINUTE", 816, 816, 816]
["CDISCPILOT01", "701", "1153", "STANDING", "STANDING", "STANDING", "67", "", "79", "141", "", "", "mmHg", "", "BEATS/MIN", "mmHg", "", "", "", "", "", "", "", "", "", "WEEK 2", "08-OCT-2013", "08-OCT-2013", "", "08-OCT-2013", "08-OCT-2013", "", "", "AFTER STANDING FOR 3 MINUTES", "AFTER STANDING FOR 3 MINUTES", "AFTER STANDING FOR 3 MINUTES", 817, 817, 817]
["CDISCPILOT01", "701", "1153", "SUPINE", "SUPINE", "SUPINE", "56", "", "76", "138", "099.0", "125.0", "mmHg", "", "BEATS/MIN", "mmHg", "F", "LB", "", "", "", "", "", "", "ORAL CAVITY", "WEEK 4", "19-OCT-2013", "19-OCT-2013", "", "19-OCT-2013", "19-OCT-2013", "19-OCT-2013", "19-OCT-2013", "AFTER LYING DOWN FOR 5 MINUTES", "AFTER LYING DOWN FOR 5 MINUTES", "AFTER LYING DOWN FOR 5 MINUTES", 815, 815, 815]
["CDISCPILOT01", "701", "1153", "STANDING", "STANDING", "STANDING", "52", "", "75", "136", "", "", "mmHg", "", "BEATS/MIN", "mmHg", "", "", "", "", "", "", "", "", "", "WEEK 4", "19-OCT-2013", "19-OCT-2013", "", "19-OCT-2013", "19-OCT-2013", "", "", "AFTER STANDING FOR 1 MINUTE", "AFTER STANDING FOR 1 MINUTE", "AFTER STANDING FOR 1 MINUTE", 816, 816, 816]
["CDISCPILOT01", "701", "1153", "STANDING", "STANDING", "STANDING", "61", "", "78", "138", "", "", "mmHg", "", "BEATS/MIN", "mmHg", "", "", "", "", "", "", "", "", "", "WEEK 4", "19-OCT-2013", "19-OCT-2013", "", "19-OCT-2013", "19-OCT-2013", "", "", "AFTER STANDING FOR 3 MINUTES", "AFTER STANDING FOR 3 MINUTES", "AFTER STANDING FOR 3 MINUTES", 817, 817, 817]
["CDISCPILOT01", "701", "1153", "SUPINE", "SUPINE", "SUPINE", "57", "", "70", "145", "098.9", "", "mmHg", "", "BEATS/MIN", "mmHg", "F", "", "", "", "", "", "", "", "ORAL CAVITY", "AMBUL ECG REMOVAL", "28-OCT-2013", "28-OCT-2013", "", "28-OCT-2013", "28-OCT-2013", "28-OCT-2013", "", "AFTER LYING DOWN FOR 5 MINUTES", "AFTER LYING DOWN FOR 5 MINUTES", "AFTER LYING DOWN FOR 5 MINUTES", 815, 815, 815]
["CDISCPILOT01", "701", "1153", "STANDING", "STANDING", "STANDING", "52", "", "76", "122", "", "", "mmHg", "", "BEATS/MIN", "mmHg", "", "", "", "", "", "", "", "", "", "AMBUL ECG REMOVAL", "28-OCT-2013", "28-OCT-2013", "", "28-OCT-2013", "28-OCT-2013", "", "", "AFTER STANDING FOR 1 MINUTE", "AFTER STANDING FOR 1 MINUTE", "AFTER STANDING FOR 1 MINUTE", 816, 816, 816]
["CDISCPILOT01", "701", "1153", "STANDING", "STANDING", "STANDING", "54", "", "74", "132", "", "", "mmHg", "", "BEATS/MIN", "mmHg", "", "", "", "", "", "", "", "", "", "AMBUL ECG REMOVAL", "28-OCT-2013", "28-OCT-2013", "", "28-OCT-2013", "28-OCT-2013", "", "", "AFTER STANDING FOR 3 MINUTES", "AFTER STANDING FOR 3 MINUTES", "AFTER STANDING FOR 3 MINUTES", 817, 817, 817]
["CDISCPILOT01", "701", "1153", "SUPINE", "SUPINE", "SUPINE", "59", "", "66", "145", "98.1", "127.0", "mmHg", "", "BEATS/MIN", "mmHg", "F", "LB", "", "", "", "", "", "", "ORAL CAVITY", "WEEK 6", "04-NOV-2013", "04-NOV-2013", "", "04-NOV-2013", "04-NOV-2013", "04-NOV-2013", "04-NOV-2013", "AFTER LYING DOWN FOR 5 MINUTES", "AFTER LYING DOWN FOR 5 MINUTES", "AFTER LYING DOWN FOR 5 MINUTES", 815, 815, 815]
["CDISCPILOT01", "701", "1153", "STANDING", "STANDING", "STANDING", "68", "", "78", "151", "", "", "mmHg", "", "BEATS/MIN", "mmHg", "", "", "", "", "", "", "", "", "", "WEEK 6", "04-NOV-2013", "04-NOV-2013", "", "04-NOV-2013", "04-NOV-2013", "", "", "AFTER STANDING FOR 1 MINUTE", "AFTER STANDING FOR 1 MINUTE", "AFTER STANDING FOR 1 MINUTE", 816, 816, 816]
["CDISCPILOT01", "701", "1153", "STANDING", "STANDING", "STANDING", "72", "", "72", "154", "", "", "mmHg", "", "BEATS/MIN", "mmHg", "", "", "", "", "", "", "", "", "", "WEEK 6", "04-NOV-2013", "04-NOV-2013", "", "04-NOV-2013", "04-NOV-2013", "", "", "AFTER STANDING FOR 3 MINUTES", "AFTER STANDING FOR 3 MINUTES", "AFTER STANDING FOR 3 MINUTES", 817, 817, 817]
["CDISCPILOT01", "701", "1153", "SUPINE", "SUPINE", "SUPINE", "56", "", "74", "144", "98.3", "128.0", "mmHg", "", "BEATS/MIN", "mmHg", "F", "LB", "", "", "", "", "", "", "ORAL CAVITY", "WEEK 8", "18-NOV-2013", "18-NOV-2013", "", "18-NOV-2013", "18-NOV-2013", "18-NOV-2013", "18-NOV-2013", "AFTER LYING DOWN FOR 5 MINUTES", "AFTER LYING DOWN FOR 5 MINUTES", "AFTER LYING DOWN FOR 5 MINUTES", 815, 815, 815]
["CDISCPILOT01", "701", "1153", "STANDING", "STANDING", "STANDING", "66", "", "80", "139", "", "", "mmHg", "", "BEATS/MIN", "mmHg", "", "", "", "", "", "", "", "", "", "WEEK 8", "18-NOV-2013", "18-NOV-2013", "", "18-NOV-2013", "18-NOV-2013", "", "", "AFTER STANDING FOR 1 MINUTE", "AFTER STANDING FOR 1 MINUTE", "AFTER STANDING FOR 1 MINUTE", 816, 816, 816]
["CDISCPILOT01", "701", "1153", "STANDING", "STANDING", "STANDING", "60", "", "78", "138", "", "", "mmHg", "", "BEATS/MIN", "mmHg", "", "", "", "", "", "", "", "", "", "WEEK 8", "18-NOV-2013", "18-NOV-2013", "", "18-NOV-2013", "18-NOV-2013", "", "", "AFTER STANDING FOR 3 MINUTES", "AFTER STANDING FOR 3 MINUTES", "AFTER STANDING FOR 3 MINUTES", 817, 817, 817]
["CDISCPILOT01", "701", "1153", "SUPINE", "SUPINE", "SUPINE", "63", "", "80", "161", "98.2", "126.0", "mmHg", "", "BEATS/MIN", "mmHg", "F", "LB", "", "", "", "", "", "", "ORAL CAVITY", "WEEK 12", "16-DEC-2013", "16-DEC-2013", "", "16-DEC-2013", "16-DEC-2013", "16-DEC-2013", "16-DEC-2013", "AFTER LYING DOWN FOR 5 MINUTES", "AFTER LYING DOWN FOR 5 MINUTES", "AFTER LYING DOWN FOR 5 MINUTES", 815, 815, 815]
["CDISCPILOT01", "701", "1153", "STANDING", "STANDING", "STANDING", "66", "", "84", "140", "", "", "mmHg", "", "BEATS/MIN", "mmHg", "", "", "", "", "", "", "", "", "", "WEEK 12", "16-DEC-2013", "16-DEC-2013", "", "16-DEC-2013", "16-DEC-2013", "", "", "AFTER STANDING FOR 1 MINUTE", "AFTER STANDING FOR 1 MINUTE", "AFTER STANDING FOR 1 MINUTE", 816, 816, 816]
["CDISCPILOT01", "701", "1153", "STANDING", "STANDING", "STANDING", "60", "", "86", "145", "", "", "mmHg", "", "BEATS/MIN", "mmHg", "", "", "", "", "", "", "", "", "", "WEEK 12", "16-DEC-2013", "16-DEC-2013", "", "16-DEC-2013", "16-DEC-2013", "", "", "AFTER STANDING FOR 3 MINUTES", "AFTER STANDING FOR 3 MINUTES", "AFTER STANDING FOR 3 MINUTES", 817, 817, 817]
["CDISCPILOT01", "701", "1153", "SUPINE", "SUPINE", "SUPINE", "62", "", "74", "150", "98.5", "124.0", "mmHg", "", "BEATS/MIN", "mmHg", "F", "LB", "", "", "", "", "", "", "ORAL CAVITY", "WEEK 16", "08-JAN-2014", "08-JAN-2014", "", "08-JAN-2014", "08-JAN-2014", "08-JAN-2014", "08-JAN-2014", "AFTER LYING DOWN FOR 5 MINUTES", "AFTER LYING DOWN FOR 5 MINUTES", "AFTER LYING DOWN FOR 5 MINUTES", 815, 815, 815]
["CDISCPILOT01", "701", "1153", "STANDING", "STANDING", "STANDING", "56", "", "74", "145", "", "", "mmHg", "", "BEATS/MIN", "mmHg", "", "", "", "", "", "", "", "", "", "WEEK 16", "08-JAN-2014", "08-JAN-2014", "", "08-JAN-2014", "08-JAN-2014", "", "", "AFTER STANDING FOR 1 MINUTE", "AFTER STANDING FOR 1 MINUTE", "AFTER STANDING FOR 1 MINUTE", 816, 816, 816]
["CDISCPILOT01", "701", "1153", "STANDING", "STANDING", "STANDING", "56", "", "76", "154", "", "", "mmHg", "", "BEATS/MIN", "mmHg", "", "", "", "", "", "", "", "", "", "WEEK 16", "08-JAN-2014", "08-JAN-2014", "", "08-JAN-2014", "08-JAN-2014", "", "", "AFTER STANDING FOR 3 MINUTES", "AFTER STANDING FOR 3 MINUTES", "AFTER STANDING FOR 3 MINUTES", 817, 817, 817]
["CDISCPILOT01", "701", "1153", "SUPINE", "SUPINE", "SUPINE", "54", "", "68", "144", "97.6", "126.0", "mmHg", "", "BEATS/MIN", "mmHg", "F", "LB", "", "", "", "", "", "", "ORAL CAVITY", "WEEK 20", "11-FEB-2014", "11-FEB-2014", "", "11-FEB-2014", "11-FEB-2014", "11-FEB-2014", "11-FEB-2014", "AFTER LYING DOWN FOR 5 MINUTES", "AFTER LYING DOWN FOR 5 MINUTES", "AFTER LYING DOWN FOR 5 MINUTES", 815, 815, 815]
["CDISCPILOT01", "701", "1153", "STANDING", "STANDING", "STANDING", "57", "", "68", "138", "", "", "mmHg", "", "BEATS/MIN", "mmHg", "", "", "", "", "", "", "", "", "", "WEEK 20", "11-FEB-2014", "11-FEB-2014", "", "11-FEB-2014", "11-FEB-2014", "", "", "AFTER STANDING FOR 1 MINUTE", "AFTER STANDING FOR 1 MINUTE", "AFTER STANDING FOR 1 MINUTE", 816, 816, 816]
["CDISCPILOT01", "701", "1153", "STANDING", "STANDING", "STANDING", "61", "", "71", "138", "", "", "mmHg", "", "BEATS/MIN", "mmHg", "", "", "", "", "", "", "", "", "", "WEEK 20", "11-FEB-2014", "11-FEB-2014", "", "11-FEB-2014", "11-FEB-2014", "", "", "AFTER STANDING FOR 3 MINUTES", "AFTER STANDING FOR 3 MINUTES", "AFTER STANDING FOR 3 MINUTES", 817, 817, 817]
["CDISCPILOT01", "701", "1153", "SUPINE", "SUPINE", "SUPINE", "55", "", "74", "153", "98.9", "124.0", "mmHg", "", "BEATS/MIN", "mmHg", "F", "LB", "", "", "", "", "", "", "ORAL CAVITY", "WEEK 24", "11-MAR-2014", "11-MAR-2014", "", "11-MAR-2014", "11-MAR-2014", "11-MAR-2014", "11-MAR-2014", "AFTER LYING DOWN FOR 5 MINUTES", "AFTER LYING DOWN FOR 5 MINUTES", "AFTER LYING DOWN FOR 5 MINUTES", 815, 815, 815]
["CDISCPILOT01", "701", "1153", "STANDING", "STANDING", "STANDING", "52", "", "77", "140", "", "", "mmHg", "", "BEATS/MIN", "mmHg", "", "", "", "", "", "", "", "", "", "WEEK 24", "11-MAR-2014", "11-MAR-2014", "", "11-MAR-2014", "11-MAR-2014", "", "", "AFTER STANDING FOR 1 MINUTE", "AFTER STANDING FOR 1 MINUTE", "AFTER STANDING FOR 1 MINUTE", 816, 816, 816]
["CDISCPILOT01", "701", "1153", "STANDING", "STANDING", "STANDING", "58", "", "79", "145", "", "", "mmHg", "", "BEATS/MIN", "mmHg", "", "", "", "", "", "", "", "", "", "WEEK 24", "11-MAR-2014", "11-MAR-2014", "", "11-MAR-2014", "11-MAR-2014", "", "", "AFTER STANDING FOR 3 MINUTES", "AFTER STANDING FOR 3 MINUTES", "AFTER STANDING FOR 3 MINUTES", 817, 817, 817]
["CDISCPILOT01", "701", "1153", "SUPINE", "SUPINE", "SUPINE", "58", "", "76", "160", "97.7", "125.0", "mmHg", "", "BEATS/MIN", "mmHg", "F", "LB", "", "", "", "", "", "", "ORAL CAVITY", "WEEK 26", "01-APR-2014", "01-APR-2014", "", "01-APR-2014", "01-APR-2014", "01-APR-2014", "01-APR-2014", "AFTER LYING DOWN FOR 5 MINUTES", "AFTER LYING DOWN FOR 5 MINUTES", "AFTER LYING DOWN FOR 5 MINUTES", 815, 815, 815]
["CDISCPILOT01", "701", "1153", "STANDING", "STANDING", "STANDING", "56", "", "76", "152", "", "", "mmHg", "", "BEATS/MIN", "mmHg", "", "", "", "", "", "", "", "", "", "WEEK 26", "01-APR-2014", "01-APR-2014", "", "01-APR-2014", "01-APR-2014", "", "", "AFTER STANDING FOR 1 MINUTE", "AFTER STANDING FOR 1 MINUTE", "AFTER STANDING FOR 1 MINUTE", 816, 816, 816]
["CDISCPILOT01", "701", "1153", "STANDING", "STANDING", "STANDING", "63", "", "80", "161", "", "", "mmHg", "", "BEATS/MIN", "mmHg", "", "", "", "", "", "", "", "", "", "WEEK 26", "01-APR-2014", "01-APR-2014", "", "01-APR-2014", "01-APR-2014", "", "", "AFTER STANDING FOR 3 MINUTES", "AFTER STANDING FOR 3 MINUTES", "AFTER STANDING FOR 3 MINUTES", 817, 817, 817]
["CDISCPILOT01", "701", "1180", "SUPINE", "SUPINE", "SUPINE", "86", "071.0", "60", "146", "098.5", "196.0", "mmHg", "IN", "BEATS/MIN", "mmHg", "F", "LB", "", "", "", "", "", "", "ORAL CAVITY", "SCREENING 1", "28-JAN-2013", "28-JAN-2013", "28-JAN-2013", "28-JAN-2013", "28-JAN-2013", "28-JAN-2013", "28-JAN-2013", "AFTER LYING DOWN FOR 5 MINUTES", "AFTER LYING DOWN FOR 5 MINUTES", "AFTER LYING DOWN FOR 5 MINUTES", 815, 815, 815]
["CDISCPILOT01", "701", "1180", "STANDING", "STANDING", "STANDING", "88", "", "68", "144", "", "", "mmHg", "", "BEATS/MIN", "mmHg", "", "", "", "", "", "", "", "", "", "SCREENING 1", "28-JAN-2013", "28-JAN-2013", "", "28-JAN-2013", "28-JAN-2013", "", "", "AFTER STANDING FOR 1 MINUTE", "AFTER STANDING FOR 1 MINUTE", "AFTER STANDING FOR 1 MINUTE", 816, 816, 816]
["CDISCPILOT01", "701", "1180", "STANDING", "STANDING", "STANDING", "90", "", "64", "138", "", "", "mmHg", "", "BEATS/MIN", "mmHg", "", "", "", "", "", "", "", "", "", "SCREENING 1", "28-JAN-2013", "28-JAN-2013", "", "28-JAN-2013", "28-JAN-2013", "", "", "AFTER STANDING FOR 3 MINUTES", "AFTER STANDING FOR 3 MINUTES", "AFTER STANDING FOR 3 MINUTES", 817, 817, 817]
