[
  {
    "_links": {
      "parentBiomedicalConcept": {
        "href": "/mdr/bc/biomedicalconcepts/C28421",
        "title": "Sex",
        "type": "Biomedical Concept"
      },
      "parentPackage": {
        "href": "/mdr/specializations/sdtm/packages/2025-04-01/datasetspecializations",
        "title": "SDTM Dataset Specialization Package Effective 2025-04-01",
        "type": "SDTM Dataset Specialization Package"
      },
      "self": {
        "href": "/mdr/specializations/sdtm/datasetspecializations/SEX",
        "title": "Sex",
        "type": "SDTM Dataset Specialization"
      }
    },
    "datasetSpecializationId": "SEX",
    "domain": "DM",
    "shortName": "Sex",
    "source": "DM.SEX",
    "sdtmigStartVersion": "3-2",
    "sdtmigEndVersion": "",
    "variables": [
      {
        "name": "SEX",
        "dataElementConceptId": "C28421",
        "isNonStandard": false,
        "codelist": {
          "conceptId": "C66731",
          "submissionValue": "SEX",
          "href": "https://evsexplore.semantics.cancer.gov/evsexplore/concept/ncit/C66731"
        },
        "valueList": [
          "F",
          "INTERSEX",
          "M",
          "U"
        ],
        "role": "Qualifier",
        "dataType": "text",
        "length": 100,
        "mandatoryVariable": true,
        "mandatoryValue": false,
        "originType": "Collected",
        "originSource": "Investigator"
      },
      {
        "name": "DMDTC",
        "dataElementConceptId": "C82515",
        "isNonStandard": false,
        "role": "Timing",
        "dataType": "datetime",
        "mandatoryVariable": true,
        "mandatoryValue": false
      }
    ]
  },
  {
    "_links": {
      "parentBiomedicalConcept": {
        "href": "/mdr/bc/biomedicalconcepts/C17049",
        "title": "Race",
        "type": "Biomedical Concept"
      },
      "parentPackage": {
        "href": "/mdr/specializations/sdtm/packages/2025-04-01/datasetspecializations",
        "title": "SDTM Dataset Specialization Package Effective 2025-04-01",
        "type": "SDTM Dataset Specialization Package"
      },
      "self": {
        "href": "/mdr/specializations/sdtm/datasetspecializations/RACE",
        "title": "Race",
        "type": "SDTM Dataset Specialization"
      }
    },
    "datasetSpecializationId": "RACE",
    "domain": "DM",
    "shortName": "Race",
    "source": "DM.RACE",
    "sdtmigStartVersion": "3-2",
    "sdtmigEndVersion": "",
    "variables": [
      {
        "name": "RACE",
        "dataElementConceptId": "C17049",
        "isNonStandard": false,
        "codelist": {
          "conceptId": "C74457",
          "submissionValue": "RACE",
          "href": "https://evsexplore.semantics.cancer.gov/evsexplore/concept/ncit/C74457"
        },
        "valueList": [
          "AMERICAN INDIAN OR ALASKA NATIVE",
          "ASIAN",
          "BLACK OR AFRICAN AMERICAN",
          "NATIVE HAWAIIAN OR OTHER PACIFIC ISLANDER",
          "NOT REPORTED",
          "OTHER",
          "UNKNOWN",
          "WHITE"
        ],
        "role": "Qualifier",
        "dataType": "text",
        "length": 100,
        "mandatoryVariable": true,
        "mandatoryValue": false,
        "originType": "Collected",
        "originSource": "Investigator"
      },
      {
        "name": "DMDTC",
        "dataElementConceptId": "C82515",
        "isNonStandard": false,
        "role": "Timing",
        "dataType": "datetime",
        "mandatoryVariable": true,
        "mandatoryValue": false
      }
    ]
  },
  {
    "_links": {
      "parentBiomedicalConcept": {
        "href": "/mdr/bc/biomedicalconcepts/C69260",
        "title": "Subject Age",
        "type": "Biomedical Concept"
      },
      "parentPackage": {
        "href": "/mdr/specializations/sdtm/packages/2025-07-01/datasetspecializations",
        "title": "SDTM Dataset Specialization Package Effective 2025-07-01",
        "type": "SDTM Dataset Specialization Package"
      },
      "self": {
        "href": "/mdr/specializations/sdtm/datasetspecializations/AGE",
        "title": "Age",
        "type": "SDTM Dataset Specialization"
      }
    },
    "datasetSpecializationId": "AGE",
    "domain": "DM",
    "shortName": "Age",
    "source": "DM.AGE",
    "sdtmigStartVersion": "3-2",
    "sdtmigEndVersion": "",
    "variables": [
      {
        "name": "AGE",
        "dataElementConceptId": "C170981",
        "isNonStandard": false,
        "role": "Qualifier",
        "dataType": "float",
        "length": 6,
        "format": "3.2",
        "significantDigits": 2,
        "mandatoryVariable": true,
        "mandatoryValue": false,
        "originType": "Collected",
        "originSource": "Investigator"
      },
      {
        "name": "AGEU",
        "dataElementConceptId": "C50400",
        "isNonStandard": false,
        "codelist": {
          "conceptId": "C66781",
          "submissionValue": "AGEU",
          "href": "https://evsexplore.semantics.cancer.gov/evsexplore/concept/ncit/C66781"
        },
        "valueList": [
          "DAYS",
          "HOURS",
          "MONTHS",
          "WEEKS",
          "YEARS"
        ],
        "role": "Qualifier",
        "dataType": "text",
        "length": 20,
        "relationship": {
          "subject": "AGEU",
          "linkingPhrase": "is the unit for",
          "predicateTerm": "IS_UNIT_FOR",
          "object": "AGE"
        },
        "mandatoryVariable": true,
        "mandatoryValue": false,
        "originType": "Collected",
        "originSource": "Investigator"
      },
      {
        "name": "DMDTC",
        "dataElementConceptId": "C82515",
        "isNonStandard": false,
        "role": "Timing",
        "dataType": "datetime",
        "mandatoryVariable": true,
        "mandatoryValue": false
      }
    ]
  }
]