STUDYID,SITEID,SUBJID,CMSPID,CMTRT,CMDECOD,CMINDC,CMCLAS,CMDOSE,CMDOSU,CMDOSFRQ,CMROUTE,VISIT,VISDAT,CMSTDAT,CMENDAT,CMONGO
CDISCPILOT01,701,1015,1,ASPIRIN,ACETYLSALICYLIC ACID,,NERVOUS SYSTEM,1,TABLET,PRN,ORAL,SCREENING 1,26-DEC-2013,2003,,Y
CDISCPILOT01,701,1015,1,ASPIRIN,ACETYLSALICYLIC ACID,,NERVOUS SYSTEM,1,TABLET,PRN,ORAL,SCREENING 2,31-DEC-2013,2003,,Y
CDISCPILOT01,701,1015,1,ASPIRIN,ACETYLSALICYLIC ACID,,NERVOUS SYSTEM,1,TABLET,PRN,ORAL,BASELINE,02-JAN-2014,2003,,Y
CDISCPILOT01,701,1015,1,ASPIRIN,ACETYLSALICYLIC ACID,,NERVOUS SYSTEM,1,TABLET,PRN,ORAL,WEEK 2,16-JAN-2014,2003,,Y
CDISCPILOT01,701,1015,1,ASPIRIN,ACETYLSALICYLIC ACID,,NERVOUS SYSTEM,1,TABLET,PRN,ORAL,WEEK 4,30-JAN-2014,2003,,Y
CDISCPILOT01,701,1015,1,ASPIRIN,ACETYLSALICYLIC ACID,,NERVOUS SYSTEM,1,TABLET,PRN,ORAL,AMBUL ECG REMOVAL,01-FEB-2014,2003,,Y
CDISCPILOT01,701,1015,1,ASPIRIN,ACETYLSALICYLIC ACID,,NERVOUS SYSTEM,1,TABLET,PRN,ORAL,WEEK 6,12-FEB-2014,2003,,Y
CDISCPILOT01,701,1015,1,ASPIRIN,ACETYLSALICYLIC ACID,,NERVOUS SYSTEM,1,TABLET,PRN,ORAL,WEEK 8,05-MAR-2014,2003,,Y
CDISCPILOT01,701,1015,1,ASPIRIN,ACETYLSALICYLIC ACID,,NERVOUS SYSTEM,1,TABLET,PRN,ORAL,WEEK 12,26-MAR-2014,2003,,Y
CDISCPILOT01,701,1015,1,ASPIRIN,ACETYLSALICYLIC ACID,,NERVOUS SYSTEM,1,TABLET,PRN,ORAL,WEEK 16,07-MAY-2014,2003,,Y
CDISCPILOT01,701,1015,1,ASPIRIN,ACETYLSALICYLIC ACID,,NERVOUS SYSTEM,1,TABLET,PRN,ORAL,WEEK 20,21-MAY-2014,2003,,Y
CDISCPILOT01,701,1015,1,ASPIRIN,ACETYLSALICYLIC ACID,,NERVOUS SYSTEM,1,TABLET,PRN,ORAL,WEEK 24,18-JUN-2014,2003,,Y
CDISCPILOT01,701,1015,1,ASPIRIN,ACETYLSALICYLIC ACID,,NERVOUS SYSTEM,1,TABLET,PRN,ORAL,WEEK 26,02-JUL-2014,2003,,Y
CDISCPILOT01,701,1015,2,CALCIUM,CALCIUM,PROPHYLAXIS OR NON-THERAPEUTIC USE,ALIMENTARY TRACT AND METABOLISM,1,TABLET,QD,ORAL,SCREENING 1,26-DEC-2013,2013,,Y
CDISCPILOT01,701,1015,2,CALCIUM,CALCIUM,PROPHYLAXIS OR NON-THERAPEUTIC USE,ALIMENTARY TRACT AND METABOLISM,1,TABLET,QD,ORAL,SCREENING 2,31-DEC-2013,2013,,Y
CDISCPILOT01,701,1015,2,CALCIUM,CALCIUM,PROPHYLAXIS OR NON-THERAPEUTIC USE,ALIMENTARY TRACT AND METABOLISM,1,TABLET,QD,ORAL,BASELINE,02-JAN-2014,2013,,Y
CDISCPILOT01,701,1015,2,CALCIUM,CALCIUM,PROPHYLAXIS OR NON-THERAPEUTIC USE,ALIMENTARY TRACT AND METABOLISM,1,TABLET,QD,ORAL,WEEK 2,16-JAN-2014,2013,,Y
CDISCPILOT01,701,1015,2,CALCIUM,CALCIUM,PROPHYLAXIS OR NON-THERAPEUTIC USE,ALIMENTARY TRACT AND METABOLISM,1,TABLET,QD,ORAL,WEEK 4,30-JAN-2014,2013,,Y
CDISCPILOT01,701,1015,2,CALCIUM,CALCIUM,PROPHYLAXIS OR NON-THERAPEUTIC USE,ALIMENTARY TRACT AND METABOLISM,1,TABLET,QD,ORAL,AMBUL ECG REMOVAL,01-FEB-2014,2013,,Y
CDISCPILOT01,701,1015,2,CALCIUM,CALCIUM,PROPHYLAXIS OR NON-THERAPEUTIC USE,ALIMENTARY TRACT AND METABOLISM,1,TABLET,QD,ORAL,WEEK 6,12-FEB-2014,2013,,Y
CDISCPILOT01,701,1015,2,CALCIUM,CALCIUM,PROPHYLAXIS OR NON-THERAPEUTIC USE,ALIMENTARY TRACT AND METABOLISM,1,TABLET,QD,ORAL,WEEK 8,05-MAR-2014,2013,,Y
CDISCPILOT01,701,1015,2,CALCIUM,CALCIUM,PROPHYLAXIS OR NON-THERAPEUTIC USE,ALIMENTARY TRACT AND METABOLISM,1,TABLET,QD,ORAL,WEEK 12,26-MAR-2014,2013,,Y
CDISCPILOT01,701,1015,2,CALCIUM,CALCIUM,PROPHYLAXIS OR NON-THERAPEUTIC USE,ALIMENTARY TRACT AND METABOLISM,1,TABLET,QD,ORAL,WEEK 16,07-MAY-2014,2013,,Y
CDISCPILOT01,701,1015,2,CALCIUM,CALCIUM,PROPHYLAXIS OR NON-THERAPEUTIC USE,ALIMENTARY TRACT AND METABOLISM,1,TABLET,QD,ORAL,WEEK 20,21-MAY-2014,2013,,Y
CDISCPILOT01,701,1015,2,CALCIUM,CALCIUM,PROPHYLAXIS OR NON-THERAPEUTIC USE,ALIMENTARY TRACT AND METABOLISM,1,TABLET,QD,ORAL,WEEK 24,18-JUN-2014,2013,,Y
CDISCPILOT01,701,1015,2,CALCIUM,CALCIUM,PROPHYLAXIS OR NON-THERAPEUTIC USE,ALIMENTARY TRACT AND METABOLISM,1,TABLET,QD,ORAL,WEEK 26,02-JUL-2014,2013,,Y
CDISCPILOT01,701,1015,3,PREMARIN,ESTROGENS CONJUGATED,PROPHYLAXIS OR NON-THERAPEUTIC USE,GENITO URINARY SYSTEM AND SEX HORMONES,0.625,mg,QD,ORAL,SCREENING 1,26-DEC-2013,2006,,Y
CDISCPILOT01,701,1015,3,PREMARIN,ESTROGENS CONJUGATED,PROPHYLAXIS OR NON-THERAPEUTIC USE,GENITO URINARY SYSTEM AND SEX HORMONES,0.625,mg,QD,ORAL,SCREENING 2,31-DEC-2013,2006,,Y
CDISCPILOT01,701,1015,3,PREMARIN,ESTROGENS CONJUGATED,PROPHYLAXIS OR NON-THERAPEUTIC USE,GENITO URINARY SYSTEM AND SEX HORMONES,0.625,mg,QD,ORAL,BASELINE,02-JAN-2014,2006,,Y
CDISCPILOT01,701,1015,3,PREMARIN,ESTROGENS CONJUGATED,PROPHYLAXIS OR NON-THERAPEUTIC USE,GENITO URINARY SYSTEM AND SEX HORMONES,0.625,mg,QD,ORAL,WEEK 2,16-JAN-2014,2006,,Y
CDISCPILOT01,701,1015,3,PREMARIN,ESTROGENS CONJUGATED,PROPHYLAXIS OR NON-THERAPEUTIC USE,GENITO URINARY SYSTEM AND SEX HORMONES,0.625,mg,QD,ORAL,WEEK 4,30-JAN-2014,2006,,Y
CDISCPILOT01,701,1015,3,PREMARIN,ESTROGENS CONJUGATED,PROPHYLAXIS OR NON-THERAPEUTIC USE,GENITO URINARY SYSTEM AND SEX HORMONES,0.625,mg,QD,ORAL,AMBUL ECG REMOVAL,01-FEB-2014,2006,,Y
CDISCPILOT01,701,1015,3,PREMARIN,ESTROGENS CONJUGATED,PROPHYLAXIS OR NON-THERAPEUTIC USE,GENITO URINARY SYSTEM AND SEX HORMONES,0.625,mg,QD,ORAL,WEEK 6,12-FEB-2014,2006,,Y
CDISCPILOT01,701,1015,3,PREMARIN,ESTROGENS CONJUGATED,PROPHYLAXIS OR NON-THERAPEUTIC USE,GENITO URINARY SYSTEM AND SEX HORMONES,0.625,mg,QD,ORAL,WEEK 8,05-MAR-2014,2006,,Y
CDISCPILOT01,701,1015,3,PREMARIN,ESTROGENS CONJUGATED,PROPHYLAXIS OR NON-THERAPEUTIC USE,GENITO URINARY SYSTEM AND SEX HORMONES,0.625,mg,QD,ORAL,WEEK 12,26-MAR-2014,2006,,Y
CDISCPILOT01,701,1015,3,PREMARIN,ESTROGENS CONJUGATED,PROPHYLAXIS OR NON-THERAPEUTIC USE,GENITO URINARY SYSTEM AND SEX HORMONES,0.625,mg,QD,ORAL,WEEK 16,07-MAY-2014,2006,,Y
CDISCPILOT01,701,1015,3,PREMARIN,ESTROGENS CONJUGATED,PROPHYLAXIS OR NON-THERAPEUTIC USE,GENITO URINARY SYSTEM AND SEX HORMONES,0.625,mg,QD,ORAL,WEEK 20,21-MAY-2014,2006,,Y
CDISCPILOT01,701,1015,3,PREMARIN,ESTROGENS CONJUGATED,PROPHYLAXIS OR NON-THERAPEUTIC USE,GENITO URINARY SYSTEM AND SEX HORMONES,0.625,mg,QD,ORAL,WEEK 24,18-JUN-2014,2006,,Y
CDISCPILOT01,701,1015,3,PREMARIN,ESTROGENS CONJUGATED,PROPHYLAXIS OR NON-THERAPEUTIC USE,GENITO URINARY SYSTEM AND SEX HORMONES,0.625,mg,QD,ORAL,WEEK 26,02-JUL-2014,2006,,Y
CDISCPILOT01,701,1015,4,TYLENOL,UNCODED,,UNCODED,1,TABLET,PRN,ORAL,SCREENING 1,26-DEC-2013,2003,,Y
CDISCPILOT01,701,1015,4,TYLENOL,UNCODED,,UNCODED,1,TABLET,PRN,ORAL,SCREENING 2,31-DEC-2013,2003,,Y
CDISCPILOT01,701,1015,4,TYLENOL,UNCODED,,UNCODED,1,TABLET,PRN,ORAL,BASELINE,02-JAN-2014,2003,,Y
CDISCPILOT01,701,1015,4,TYLENOL,UNCODED,,UNCODED,1,TABLET,PRN,ORAL,WEEK 2,16-JAN-2014,2003,,Y
CDISCPILOT01,701,1015,4,TYLENOL,UNCODED,,UNCODED,1,TABLET,PRN,ORAL,WEEK 4,30-JAN-2014,2003,,Y
CDISCPILOT01,701,1015,4,TYLENOL,UNCODED,,UNCODED,1,TABLET,PRN,ORAL,AMBUL ECG REMOVAL,01-FEB-2014,2003,,Y
CDISCPILOT01,701,1015,4,TYLENOL,UNCODED,,UNCODED,1,TABLET,PRN,ORAL,WEEK 6,12-FEB-2014,2003,,Y
CDISCPILOT01,701,1015,4,TYLENOL,UNCODED,,UNCODED,1,TABLET,PRN,ORAL,WEEK 8,05-MAR-2014,2003,,Y
CDISCPILOT01,701,1015,4,TYLENOL,UNCODED,,UNCODED,1,TABLET,PRN,ORAL,WEEK 12,26-MAR-2014,2003,,Y
CDISCPILOT01,701,1015,4,TYLENOL,UNCODED,,UNCODED,1,TABLET,PRN,ORAL,WEEK 16,07-MAY-2014,2003,,Y
CDISCPILOT01,701,1015,4,TYLENOL,UNCODED,,UNCODED,1,TABLET,PRN,ORAL,WEEK 20,21-MAY-2014,2003,,Y
CDISCPILOT01,701,1015,4,TYLENOL,UNCODED,,UNCODED,1,TABLET,PRN,ORAL,WEEK 24,18-JUN-2014,2003,,Y
CDISCPILOT01,701,1015,4,TYLENOL,UNCODED,,UNCODED,1,TABLET,PRN,ORAL,WEEK 26,02-JUL-2014,2003,,Y
CDISCPILOT01,701,1015,5,NEOSPORIN /USA/,UNCODED,,UNCODED,1,VIAL,PRN,TOPICAL,WEEK 2,16-JAN-2014,03-JAN-2014,,Y
CDISCPILOT01,701,1015,5,NEOSPORIN /USA/,UNCODED,,UNCODED,1,VIAL,PRN,TOPICAL,WEEK 4,30-JAN-2014,03-JAN-2014,,Y
CDISCPILOT01,701,1015,5,NEOSPORIN /USA/,UNCODED,,UNCODED,1,VIAL,PRN,TOPICAL,AMBUL ECG REMOVAL,01-FEB-2014,03-JAN-2014,,Y
CDISCPILOT01,701,1015,5,NEOSPORIN /USA/,UNCODED,,UNCODED,1,VIAL,PRN,TOPICAL,WEEK 6,12-FEB-2014,03-JAN-2014,,Y
CDISCPILOT01,701,1015,5,NEOSPORIN /USA/,UNCODED,,UNCODED,1,VIAL,PRN,TOPICAL,WEEK 8,05-MAR-2014,03-JAN-2014,,Y
CDISCPILOT01,701,1015,5,NEOSPORIN /USA/,UNCODED,,UNCODED,1,VIAL,PRN,TOPICAL,WEEK 12,26-MAR-2014,03-JAN-2014,,Y
CDISCPILOT01,701,1015,5,NEOSPORIN /USA/,UNCODED,,UNCODED,1,VIAL,PRN,TOPICAL,WEEK 16,07-MAY-2014,03-JAN-2014,,Y
CDISCPILOT01,701,1015,5,NEOSPORIN /USA/,UNCODED,,UNCODED,1,VIAL,PRN,TOPICAL,WEEK 20,21-MAY-2014,03-JAN-2014,,Y
CDISCPILOT01,701,1015,5,NEOSPORIN /USA/,UNCODED,,UNCODED,1,VIAL,PRN,TOPICAL,WEEK 24,18-JUN-2014,03-JAN-2014,,Y
CDISCPILOT01,701,1015,5,NEOSPORIN /USA/,UNCODED,,UNCODED,1,VIAL,PRN,TOPICAL,WEEK 26,02-JUL-2014,03-JAN-2014,,Y
CDISCPILOT01,701,1015,6,HYDROCORTISONE,HYDROCORTISONE,,"SYSTEMIC HORMONAL PREPARATIONS, EXCL.",1,VIAL,PRN,TOPICAL,WEEK 16,07-MAY-2014,27-MAR-2014,,Y
CDISCPILOT01,701,1015,6,HYDROCORTISONE,HYDROCORTISONE,,"SYSTEMIC HORMONAL PREPARATIONS, EXCL.",1,VIAL,PRN,TOPICAL,WEEK 20,21-MAY-2014,27-MAR-2014,,Y
CDISCPILOT01,701,1015,6,HYDROCORTISONE,HYDROCORTISONE,,"SYSTEMIC HORMONAL PREPARATIONS, EXCL.",1,VIAL,PRN,TOPICAL,WEEK 24,18-JUN-2014,27-MAR-2014,,Y
CDISCPILOT01,701,1015,6,HYDROCORTISONE,HYDROCORTISONE,,"SYSTEMIC HORMONAL PREPARATIONS, EXCL.",1,VIAL,PRN,TOPICAL,WEEK 26,02-JUL-2014,27-MAR-2014,,Y
CDISCPILOT01,701,1023,1,ASPIRIN,ACETYLSALICYLIC ACID,,NERVOUS SYSTEM,325,mg,PRN,ORAL,SCREENING 1,22-JUL-2012,2006,,Y
CDISCPILOT01,701,1023,1,ASPIRIN,ACETYLSALICYLIC ACID,,NERVOUS SYSTEM,325,mg,PRN,ORAL,SCREENING 2,03-AUG-2012,2006,,Y
CDISCPILOT01,701,1023,1,ASPIRIN,ACETYLSALICYLIC ACID,,NERVOUS SYSTEM,325,mg,PRN,ORAL,BASELINE,05-AUG-2012,2006,,Y
CDISCPILOT01,701,1023,1,ASPIRIN,ACETYLSALICYLIC ACID,,NERVOUS SYSTEM,325,mg,PRN,ORAL,WEEK 2,27-AUG-2012,2006,,Y
CDISCPILOT01,701,1023,1,ASPIRIN,ACETYLSALICYLIC ACID,,NERVOUS SYSTEM,325,mg,PRN,ORAL,WEEK 4,02-SEP-2012,2006,,Y
CDISCPILOT01,701,1023,1,ASPIRIN,ACETYLSALICYLIC ACID,,NERVOUS SYSTEM,325,mg,PRN,ORAL,AE FOLLOW-UP,18-FEB-2013,2006,,Y
CDISCPILOT01,701,1023,1,ASPIRIN,ACETYLSALICYLIC ACID,,NERVOUS SYSTEM,325,mg,PRN,ORAL,RETRIEVAL,18-FEB-2013,2006,,Y
CDISCPILOT01,701,1023,2,MYLANTA,UNCODED,,UNCODED,1,Tbsp,PRN,ORAL,SCREENING 1,22-JUL-2012,2002,,Y
CDISCPILOT01,701,1023,2,MYLANTA,UNCODED,,UNCODED,1,Tbsp,PRN,ORAL,SCREENING 2,03-AUG-2012,2002,,Y
CDISCPILOT01,701,1023,2,MYLANTA,UNCODED,,UNCODED,1,Tbsp,PRN,ORAL,BASELINE,05-AUG-2012,2002,,Y
CDISCPILOT01,701,1023,2,MYLANTA,UNCODED,,UNCODED,1,Tbsp,PRN,ORAL,WEEK 2,27-AUG-2012,2002,,Y
CDISCPILOT01,701,1023,2,MYLANTA,UNCODED,,UNCODED,1,Tbsp,PRN,ORAL,WEEK 4,02-SEP-2012,2002,,Y
CDISCPILOT01,701,1023,2,MYLANTA,UNCODED,,UNCODED,1,Tbsp,PRN,ORAL,AE FOLLOW-UP,18-FEB-2013,2002,,Y
CDISCPILOT01,701,1023,2,MYLANTA,UNCODED,,UNCODED,1,Tbsp,PRN,ORAL,RETRIEVAL,18-FEB-2013,2002,,Y
CDISCPILOT01,701,1023,3,TUMS,UNCODED,,UNCODED,1,TABLET,PRN,ORAL,SCREENING 1,22-JUL-2012,2002,,Y
CDISCPILOT01,701,1023,3,TUMS,UNCODED,,UNCODED,1,TABLET,PRN,ORAL,SCREENING 2,03-AUG-2012,2002,,Y
CDISCPILOT01,701,1023,3,TUMS,UNCODED,,UNCODED,1,TABLET,PRN,ORAL,BASELINE,05-AUG-2012,2002,,Y
CDISCPILOT01,701,1023,3,TUMS,UNCODED,,UNCODED,1,TABLET,PRN,ORAL,WEEK 2,27-AUG-2012,2002,,Y
CDISCPILOT01,701,1023,3,TUMS,UNCODED,,UNCODED,1,TABLET,PRN,ORAL,WEEK 4,02-SEP-2012,2002,,Y
CDISCPILOT01,701,1023,3,TUMS,UNCODED,,UNCODED,1,TABLET,PRN,ORAL,AE FOLLOW-UP,18-FEB-2013,2002,,Y
CDISCPILOT01,701,1023,3,TUMS,UNCODED,,UNCODED,1,TABLET,PRN,ORAL,RETRIEVAL,18-FEB-2013,2002,,Y
CDISCPILOT01,701,1028,1,CENTRUM,UNCODED,PROPHYLAXIS OR NON-THERAPEUTIC USE,UNCODED,1,TABLET,QD,ORAL,SCREENING 1,11-JUL-2013,APR-2013,,Y
CDISCPILOT01,701,1028,1,CENTRUM,UNCODED,PROPHYLAXIS OR NON-THERAPEUTIC USE,UNCODED,1,TABLET,QD,ORAL,SCREENING 2,17-JUL-2013,APR-2013,,Y
CDISCPILOT01,701,1028,1,CENTRUM,UNCODED,PROPHYLAXIS OR NON-THERAPEUTIC USE,UNCODED,1,TABLET,QD,ORAL,BASELINE,19-JUL-2013,APR-2013,,Y
CDISCPILOT01,701,1028,1,CENTRUM,UNCODED,PROPHYLAXIS OR NON-THERAPEUTIC USE,UNCODED,1,TABLET,QD,ORAL,WEEK 2,01-AUG-2013,APR-2013,,Y
CDISCPILOT01,701,1028,1,CENTRUM,UNCODED,PROPHYLAXIS OR NON-THERAPEUTIC USE,UNCODED,1,TABLET,QD,ORAL,WEEK 4,14-AUG-2013,APR-2013,,Y
CDISCPILOT01,701,1028,1,CENTRUM,UNCODED,PROPHYLAXIS OR NON-THERAPEUTIC USE,UNCODED,1,TABLET,QD,ORAL,AMBUL ECG REMOVAL,16-AUG-2013,APR-2013,,Y
CDISCPILOT01,701,1028,1,CENTRUM,UNCODED,PROPHYLAXIS OR NON-THERAPEUTIC USE,UNCODED,1,TABLET,QD,ORAL,WEEK 6,29-AUG-2013,APR-2013,,Y
CDISCPILOT01,701,1028,1,CENTRUM,UNCODED,PROPHYLAXIS OR NON-THERAPEUTIC USE,UNCODED,1,TABLET,QD,ORAL,WEEK 8,10-SEP-2013,APR-2013,,Y
CDISCPILOT01,701,1028,1,CENTRUM,UNCODED,PROPHYLAXIS OR NON-THERAPEUTIC USE,UNCODED,1,TABLET,QD,ORAL,WEEK 12,09-OCT-2013,APR-2013,,Y
CDISCPILOT01,701,1028,1,CENTRUM,UNCODED,PROPHYLAXIS OR NON-THERAPEUTIC USE,UNCODED,1,TABLET,QD,ORAL,WEEK 16,06-NOV-2013,APR-2013,,Y
CDISCPILOT01,701,1028,1,CENTRUM,UNCODED,PROPHYLAXIS OR NON-THERAPEUTIC USE,UNCODED,1,TABLET,QD,ORAL,WEEK 20,04-DEC-2013,APR-2013,,Y
CDISCPILOT01,701,1028,1,CENTRUM,UNCODED,PROPHYLAXIS OR NON-THERAPEUTIC USE,UNCODED,1,TABLET,QD,ORAL,WEEK 24,06-JAN-2014,APR-2013,,Y
CDISCPILOT01,701,1028,1,CENTRUM,UNCODED,PROPHYLAXIS OR NON-THERAPEUTIC USE,UNCODED,1,TABLET,QD,ORAL,WEEK 26,14-JAN-2014,APR-2013,,Y
CDISCPILOT01,701,1028,2,HYDROCORTISONE,HYDROCORTISONE,,"SYSTEMIC HORMONAL PREPARATIONS, EXCL.",1,VIAL,PRN,TOPICAL,WEEK 4,14-AUG-2013,08-AUG-2013,,Y
CDISCPILOT01,701,1028,2,HYDROCORTISONE,HYDROCORTISONE,,"SYSTEMIC HORMONAL PREPARATIONS, EXCL.",1,VIAL,PRN,TOPICAL,AMBUL ECG REMOVAL,16-AUG-2013,08-AUG-2013,,Y
CDISCPILOT01,701,1028,2,HYDROCORTISONE,HYDROCORTISONE,,"SYSTEMIC HORMONAL PREPARATIONS, EXCL.",1,VIAL,PRN,TOPICAL,WEEK 6,29-AUG-2013,08-AUG-2013,,Y
CDISCPILOT01,701,1028,2,HYDROCORTISONE,HYDROCORTISONE,,"SYSTEMIC HORMONAL PREPARATIONS, EXCL.",1,VIAL,PRN,TOPICAL,WEEK 8,10-SEP-2013,08-AUG-2013,,Y
CDISCPILOT01,701,1028,2,HYDROCORTISONE,HYDROCORTISONE,,"SYSTEMIC HORMONAL PREPARATIONS, EXCL.",1,VIAL,PRN,TOPICAL,WEEK 12,09-OCT-2013,08-AUG-2013,,Y
CDISCPILOT01,701,1028,2,HYDROCORTISONE,HYDROCORTISONE,,"SYSTEMIC HORMONAL PREPARATIONS, EXCL.",1,VIAL,PRN,TOPICAL,WEEK 16,06-NOV-2013,08-AUG-2013,,Y
CDISCPILOT01,701,1028,2,HYDROCORTISONE,HYDROCORTISONE,,"SYSTEMIC HORMONAL PREPARATIONS, EXCL.",1,VIAL,PRN,TOPICAL,WEEK 20,04-DEC-2013,08-AUG-2013,,Y
CDISCPILOT01,701,1028,2,HYDROCORTISONE,HYDROCORTISONE,,"SYSTEMIC HORMONAL PREPARATIONS, EXCL.",1,VIAL,PRN,TOPICAL,WEEK 24,06-JAN-2014,08-AUG-2013,,Y
CDISCPILOT01,701,1028,2,HYDROCORTISONE,HYDROCORTISONE,,"SYSTEMIC HORMONAL PREPARATIONS, EXCL.",1,VIAL,PRN,TOPICAL,WEEK 26,14-JAN-2014,08-AUG-2013,,Y
CDISCPILOT01,701,1033,1,CALCIUM,CALCIUM,PROPHYLAXIS OR NON-THERAPEUTIC USE,ALIMENTARY TRACT AND METABOLISM,1,TABLET,PRN,ORAL,SCREENING 1,10-MAR-2014,2011,,Y
CDISCPILOT01,701,1033,1,CALCIUM,CALCIUM,PROPHYLAXIS OR NON-THERAPEUTIC USE,ALIMENTARY TRACT AND METABOLISM,1,TABLET,PRN,ORAL,SCREENING 2,16-MAR-2014,2011,,Y
CDISCPILOT01,701,1033,1,CALCIUM,CALCIUM,PROPHYLAXIS OR NON-THERAPEUTIC USE,ALIMENTARY TRACT AND METABOLISM,1,TABLET,PRN,ORAL,BASELINE,18-MAR-2014,2011,,Y
CDISCPILOT01,701,1033,1,CALCIUM,CALCIUM,PROPHYLAXIS OR NON-THERAPEUTIC USE,ALIMENTARY TRACT AND METABOLISM,1,TABLET,PRN,ORAL,WEEK 2,01-APR-2014,2011,,Y
CDISCPILOT01,701,1033,1,CALCIUM,CALCIUM,PROPHYLAXIS OR NON-THERAPEUTIC USE,ALIMENTARY TRACT AND METABOLISM,1,TABLET,PRN,ORAL,WEEK 4,14-APR-2014,2011,,Y
CDISCPILOT01,701,1033,1,CALCIUM,CALCIUM,PROPHYLAXIS OR NON-THERAPEUTIC USE,ALIMENTARY TRACT AND METABOLISM,1,TABLET,PRN,ORAL,RETRIEVAL,15-SEP-2014,2011,,Y
CDISCPILOT01,701,1033,2,COD-LIVER OIL,UNCODED,PROPHYLAXIS OR NON-THERAPEUTIC USE,UNCODED,1,CAPSULE,PRN,ORAL,SCREENING 1,10-MAR-2014,2011,,Y
CDISCPILOT01,701,1033,2,COD-LIVER OIL,UNCODED,PROPHYLAXIS OR NON-THERAPEUTIC USE,UNCODED,1,CAPSULE,PRN,ORAL,SCREENING 2,16-MAR-2014,2011,,Y
CDISCPILOT01,701,1033,2,COD-LIVER OIL,UNCODED,PROPHYLAXIS OR NON-THERAPEUTIC USE,UNCODED,1,CAPSULE,PRN,ORAL,BASELINE,18-MAR-2014,2011,,Y
CDISCPILOT01,701,1033,2,COD-LIVER OIL,UNCODED,PROPHYLAXIS OR NON-THERAPEUTIC USE,UNCODED,1,CAPSULE,PRN,ORAL,WEEK 2,01-APR-2014,2011,,Y
CDISCPILOT01,701,1033,2,COD-LIVER OIL,UNCODED,PROPHYLAXIS OR NON-THERAPEUTIC USE,UNCODED,1,CAPSULE,PRN,ORAL,WEEK 4,14-APR-2014,2011,,Y
CDISCPILOT01,701,1033,2,COD-LIVER OIL,UNCODED,PROPHYLAXIS OR NON-THERAPEUTIC USE,UNCODED,1,CAPSULE,PRN,ORAL,RETRIEVAL,15-SEP-2014,2011,,Y
CDISCPILOT01,701,1033,3,NITROGLYCERIN,UNCODED,,UNCODED,0.4,mg,PRN,SUBLINGUAL,SCREENING 1,10-MAR-2014,FEB-2014,,Y
CDISCPILOT01,701,1033,3,NITROGLYCERIN,UNCODED,,UNCODED,0.4,mg,PRN,SUBLINGUAL,SCREENING 2,16-MAR-2014,FEB-2014,,Y
CDISCPILOT01,701,1033,3,NITROGLYCERIN,UNCODED,,UNCODED,0.4,mg,PRN,SUBLINGUAL,BASELINE,18-MAR-2014,FEB-2014,,Y
CDISCPILOT01,701,1033,3,NITROGLYCERIN,UNCODED,,UNCODED,0.4,mg,PRN,SUBLINGUAL,WEEK 2,01-APR-2014,FEB-2014,,Y
CDISCPILOT01,701,1033,3,NITROGLYCERIN,UNCODED,,UNCODED,0.4,mg,PRN,SUBLINGUAL,WEEK 4,14-APR-2014,FEB-2014,,Y
CDISCPILOT01,701,1033,3,NITROGLYCERIN,UNCODED,,UNCODED,0.4,mg,PRN,SUBLINGUAL,RETRIEVAL,15-SEP-2014,FEB-2014,,Y
CDISCPILOT01,701,1033,4,ZINC,UNCODED,PROPHYLAXIS OR NON-THERAPEUTIC USE,UNCODED,1,TABLET,PRN,ORAL,SCREENING 1,10-MAR-2014,2011,,Y
CDISCPILOT01,701,1033,4,ZINC,UNCODED,PROPHYLAXIS OR NON-THERAPEUTIC USE,UNCODED,1,TABLET,PRN,ORAL,SCREENING 2,16-MAR-2014,2011,,Y
CDISCPILOT01,701,1033,4,ZINC,UNCODED,PROPHYLAXIS OR NON-THERAPEUTIC USE,UNCODED,1,TABLET,PRN,ORAL,BASELINE,18-MAR-2014,2011,,Y
CDISCPILOT01,701,1033,4,ZINC,UNCODED,PROPHYLAXIS OR NON-THERAPEUTIC USE,UNCODED,1,TABLET,PRN,ORAL,WEEK 2,01-APR-2014,2011,,Y
CDISCPILOT01,701,1033,4,ZINC,UNCODED,PROPHYLAXIS OR NON-THERAPEUTIC USE,UNCODED,1,TABLET,PRN,ORAL,WEEK 4,14-APR-2014,2011,,Y
CDISCPILOT01,701,1033,4,ZINC,UNCODED,PROPHYLAXIS OR NON-THERAPEUTIC USE,UNCODED,1,TABLET,PRN,ORAL,RETRIEVAL,15-SEP-2014,2011,,Y
CDISCPILOT01,701,1034,1,CALCIUM,CALCIUM,PROPHYLAXIS OR NON-THERAPEUTIC USE,ALIMENTARY TRACT AND METABOLISM,1,TABLET,QD,ORAL,SCREENING 1,24-JUN-2014,2012,,Y
CDISCPILOT01,701,1034,1,CALCIUM,CALCIUM,PROPHYLAXIS OR NON-THERAPEUTIC USE,ALIMENTARY TRACT AND METABOLISM,1,TABLET,QD,ORAL,SCREENING 2,29-JUN-2014,2012,,Y
CDISCPILOT01,701,1034,1,CALCIUM,CALCIUM,PROPHYLAXIS OR NON-THERAPEUTIC USE,ALIMENTARY TRACT AND METABOLISM,1,TABLET,QD,ORAL,BASELINE,01-JUL-2014,2012,,Y
CDISCPILOT01,701,1034,1,CALCIUM,CALCIUM,PROPHYLAXIS OR NON-THERAPEUTIC USE,ALIMENTARY TRACT AND METABOLISM,1,TABLET,QD,ORAL,WEEK 2,15-JUL-2014,2012,,Y
CDISCPILOT01,701,1034,1,CALCIUM,CALCIUM,PROPHYLAXIS OR NON-THERAPEUTIC USE,ALIMENTARY TRACT AND METABOLISM,1,TABLET,QD,ORAL,WEEK 4,29-JUL-2014,2012,,Y
CDISCPILOT01,701,1034,1,CALCIUM,CALCIUM,PROPHYLAXIS OR NON-THERAPEUTIC USE,ALIMENTARY TRACT AND METABOLISM,1,TABLET,QD,ORAL,AMBUL ECG REMOVAL,31-JUL-2014,2012,,Y
CDISCPILOT01,701,1034,1,CALCIUM,CALCIUM,PROPHYLAXIS OR NON-THERAPEUTIC USE,ALIMENTARY TRACT AND METABOLISM,1,TABLET,QD,ORAL,WEEK 6,11-AUG-2014,2012,,Y
CDISCPILOT01,701,1034,1,CALCIUM,CALCIUM,PROPHYLAXIS OR NON-THERAPEUTIC USE,ALIMENTARY TRACT AND METABOLISM,1,TABLET,QD,ORAL,WEEK 8,26-AUG-2014,2012,,Y
CDISCPILOT01,701,1034,1,CALCIUM,CALCIUM,PROPHYLAXIS OR NON-THERAPEUTIC USE,ALIMENTARY TRACT AND METABOLISM,1,TABLET,QD,ORAL,WEEK 12,25-SEP-2014,2012,,Y
CDISCPILOT01,701,1034,1,CALCIUM,CALCIUM,PROPHYLAXIS OR NON-THERAPEUTIC USE,ALIMENTARY TRACT AND METABOLISM,1,TABLET,QD,ORAL,WEEK 16,21-OCT-2014,2012,,Y
CDISCPILOT01,701,1034,1,CALCIUM,CALCIUM,PROPHYLAXIS OR NON-THERAPEUTIC USE,ALIMENTARY TRACT AND METABOLISM,1,TABLET,QD,ORAL,WEEK 20,18-NOV-2014,2012,,Y
CDISCPILOT01,701,1034,1,CALCIUM,CALCIUM,PROPHYLAXIS OR NON-THERAPEUTIC USE,ALIMENTARY TRACT AND METABOLISM,1,TABLET,QD,ORAL,WEEK 24,17-DEC-2014,2012,,Y
CDISCPILOT01,701,1034,1,CALCIUM,CALCIUM,PROPHYLAXIS OR NON-THERAPEUTIC USE,ALIMENTARY TRACT AND METABOLISM,1,TABLET,QD,ORAL,WEEK 26,30-DEC-2014,2012,,Y
CDISCPILOT01,701,1034,2,ESTROGEN NOS,UNCODED,PROPHYLAXIS OR NON-THERAPEUTIC USE,UNCODED,3,mL,OTHER,INTRAMUSCULAR,SCREENING 1,24-JUN-2014,1960,,Y
CDISCPILOT01,701,1034,2,ESTROGEN NOS,UNCODED,PROPHYLAXIS OR NON-THERAPEUTIC USE,UNCODED,3,mL,OTHER,INTRAMUSCULAR,SCREENING 2,29-JUN-2014,1960,,Y
CDISCPILOT01,701,1034,2,ESTROGEN NOS,UNCODED,PROPHYLAXIS OR NON-THERAPEUTIC USE,UNCODED,3,mL,OTHER,INTRAMUSCULAR,BASELINE,01-JUL-2014,1960,,Y
CDISCPILOT01,701,1034,2,ESTROGEN NOS,UNCODED,PROPHYLAXIS OR NON-THERAPEUTIC USE,UNCODED,3,mL,OTHER,INTRAMUSCULAR,WEEK 2,15-JUL-2014,1960,,Y
CDISCPILOT01,701,1034,2,ESTROGEN NOS,UNCODED,PROPHYLAXIS OR NON-THERAPEUTIC USE,UNCODED,3,mL,OTHER,INTRAMUSCULAR,WEEK 4,29-JUL-2014,1960,,Y
CDISCPILOT01,701,1034,2,ESTROGEN NOS,UNCODED,PROPHYLAXIS OR NON-THERAPEUTIC USE,UNCODED,3,mL,OTHER,INTRAMUSCULAR,AMBUL ECG REMOVAL,31-JUL-2014,1960,,Y
CDISCPILOT01,701,1034,2,ESTROGEN NOS,UNCODED,PROPHYLAXIS OR NON-THERAPEUTIC USE,UNCODED,3,mL,OTHER,INTRAMUSCULAR,WEEK 6,11-AUG-2014,1960,,Y
CDISCPILOT01,701,1034,2,ESTROGEN NOS,UNCODED,PROPHYLAXIS OR NON-THERAPEUTIC USE,UNCODED,3,mL,OTHER,INTRAMUSCULAR,WEEK 8,26-AUG-2014,1960,,Y
CDISCPILOT01,701,1034,2,ESTROGEN NOS,UNCODED,PROPHYLAXIS OR NON-THERAPEUTIC USE,UNCODED,3,mL,OTHER,INTRAMUSCULAR,WEEK 12,25-SEP-2014,1960,,Y
CDISCPILOT01,701,1034,2,ESTROGEN NOS,UNCODED,PROPHYLAXIS OR NON-THERAPEUTIC USE,UNCODED,3,mL,OTHER,INTRAMUSCULAR,WEEK 16,21-OCT-2014,1960,,Y
CDISCPILOT01,701,1034,2,ESTROGEN NOS,UNCODED,PROPHYLAXIS OR NON-THERAPEUTIC USE,UNCODED,3,mL,OTHER,INTRAMUSCULAR,WEEK 20,18-NOV-2014,1960,,Y
CDISCPILOT01,701,1034,2,ESTROGEN NOS,UNCODED,PROPHYLAXIS OR NON-THERAPEUTIC USE,UNCODED,3,mL,OTHER,INTRAMUSCULAR,WEEK 24,17-DEC-2014,1960,,Y
CDISCPILOT01,701,1034,2,ESTROGEN NOS,UNCODED,PROPHYLAXIS OR NON-THERAPEUTIC USE,UNCODED,3,mL,OTHER,INTRAMUSCULAR,WEEK 26,30-DEC-2014,1960,,Y
CDISCPILOT01,701,1034,3,EX-LAX,UNCODED,,UNCODED,1,TABLET,QD,ORAL,SCREENING 1,24-JUN-2014,2001,,Y
CDISCPILOT01,701,1034,3,EX-LAX,UNCODED,,UNCODED,1,TABLET,QD,ORAL,SCREENING 2,29-JUN-2014,2001,,Y
CDISCPILOT01,701,1034,3,EX-LAX,UNCODED,,UNCODED,1,TABLET,QD,ORAL,BASELINE,01-JUL-2014,2001,,Y
CDISCPILOT01,701,1034,3,EX-LAX,UNCODED,,UNCODED,1,TABLET,QD,ORAL,WEEK 2,15-JUL-2014,2001,,Y
CDISCPILOT01,701,1034,3,EX-LAX,UNCODED,,UNCODED,1,TABLET,QD,ORAL,WEEK 4,29-JUL-2014,2001,,Y
CDISCPILOT01,701,1034,3,EX-LAX,UNCODED,,UNCODED,1,TABLET,QD,ORAL,AMBUL ECG REMOVAL,31-JUL-2014,2001,,Y
CDISCPILOT01,701,1034,3,EX-LAX,UNCODED,,UNCODED,1,TABLET,QD,ORAL,WEEK 6,11-AUG-2014,2001,,Y
CDISCPILOT01,701,1034,3,EX-LAX,UNCODED,,UNCODED,1,TABLET,QD,ORAL,WEEK 8,26-AUG-2014,2001,,Y
CDISCPILOT01,701,1034,3,EX-LAX,UNCODED,,UNCODED,1,TABLET,QD,ORAL,WEEK 12,25-SEP-2014,2001,,Y
CDISCPILOT01,701,1034,3,EX-LAX,UNCODED,,UNCODED,1,TABLET,QD,ORAL,WEEK 16,21-OCT-2014,2001,,Y
CDISCPILOT01,701,1034,3,EX-LAX,UNCODED,,UNCODED,1,TABLET,QD,ORAL,WEEK 20,18-NOV-2014,2001,,Y
CDISCPILOT01,701,1034,3,EX-LAX,UNCODED,,UNCODED,1,TABLET,QD,ORAL,WEEK 24,17-DEC-2014,2001,,Y
CDISCPILOT01,701,1034,3,EX-LAX,UNCODED,,UNCODED,1,TABLET,QD,ORAL,WEEK 26,30-DEC-2014,2001,,Y
CDISCPILOT01,701,1034,4,IRON,UNCODED,PROPHYLAXIS OR NON-THERAPEUTIC USE,UNCODED,1,TABLET,QD,ORAL,SCREENING 1,24-JUN-2014,2012,,Y
CDISCPILOT01,701,1034,4,IRON,UNCODED,PROPHYLAXIS OR NON-THERAPEUTIC USE,UNCODED,1,TABLET,QD,ORAL,SCREENING 2,29-JUN-2014,2012,,Y
CDISCPILOT01,701,1034,4,IRON,UNCODED,PROPHYLAXIS OR NON-THERAPEUTIC USE,UNCODED,1,TABLET,QD,ORAL,BASELINE,01-JUL-2014,2012,,Y
CDISCPILOT01,701,1034,4,IRON,UNCODED,PROPHYLAXIS OR NON-THERAPEUTIC USE,UNCODED,1,TABLET,QD,ORAL,WEEK 2,15-JUL-2014,2012,,Y
CDISCPILOT01,701,1034,4,IRON,UNCODED,PROPHYLAXIS OR NON-THERAPEUTIC USE,UNCODED,1,TABLET,QD,ORAL,WEEK 4,29-JUL-2014,2012,,Y
CDISCPILOT01,701,1034,4,IRON,UNCODED,PROPHYLAXIS OR NON-THERAPEUTIC USE,UNCODED,1,TABLET,QD,ORAL,AMBUL ECG REMOVAL,31-JUL-2014,2012,,Y
CDISCPILOT01,701,1034,4,IRON,UNCODED,PROPHYLAXIS OR NON-THERAPEUTIC USE,UNCODED,1,TABLET,QD,ORAL,WEEK 6,11-AUG-2014,2012,,Y
CDISCPILOT01,701,1034,4,IRON,UNCODED,PROPHYLAXIS OR NON-THERAPEUTIC USE,UNCODED,1,TABLET,QD,ORAL,WEEK 8,26-AUG-2014,2012,,Y
CDISCPILOT01,701,1034,4,IRON,UNCODED,PROPHYLAXIS OR NON-THERAPEUTIC USE,UNCODED,1,TABLET,QD,ORAL,WEEK 12,25-SEP-2014,2012,,Y
CDISCPILOT01,701,1034,4,IRON,UNCODED,PROPHYLAXIS OR NON-THERAPEUTIC USE,UNCODED,1,TABLET,QD,ORAL,WEEK 16,21-OCT-2014,2012,,Y
CDISCPILOT01,701,1034,4,IRON,UNCODED,PROPHYLAXIS OR NON-THERAPEUTIC USE,UNCODED,1,TABLET,QD,ORAL,WEEK 20,18-NOV-2014,2012,,Y
CDISCPILOT01,701,1034,4,IRON,UNCODED,PROPHYLAXIS OR NON-THERAPEUTIC USE,UNCODED,1,TABLET,QD,ORAL,WEEK 24,17-DEC-2014,2012,,Y
CDISCPILOT01,701,1034,4,IRON,UNCODED,PROPHYLAXIS OR NON-THERAPEUTIC USE,UNCODED,1,TABLET,QD,ORAL,WEEK 26,30-DEC-2014,2012,,Y
CDISCPILOT01,701,1034,5,LEVOTHROID,UNCODED,,UNCODED,0.15,mg,QD,ORAL,SCREENING 1,24-JUN-2014,1977,,Y
CDISCPILOT01,701,1034,5,LEVOTHROID,UNCODED,,UNCODED,0.15,mg,QD,ORAL,SCREENING 2,29-JUN-2014,1977,,Y
CDISCPILOT01,701,1034,5,LEVOTHROID,UNCODED,,UNCODED,0.15,mg,QD,ORAL,BASELINE,01-JUL-2014,1977,,Y
CDISCPILOT01,701,1034,5,LEVOTHROID,UNCODED,,UNCODED,0.15,mg,QD,ORAL,WEEK 2,15-JUL-2014,1977,,Y
CDISCPILOT01,701,1034,5,LEVOTHROID,UNCODED,,UNCODED,0.15,mg,QD,ORAL,WEEK 4,29-JUL-2014,1977,,Y
CDISCPILOT01,701,1034,5,LEVOTHROID,UNCODED,,UNCODED,0.15,mg,QD,ORAL,AMBUL ECG REMOVAL,31-JUL-2014,1977,,Y
CDISCPILOT01,701,1034,5,LEVOTHROID,UNCODED,,UNCODED,0.15,mg,QD,ORAL,WEEK 6,11-AUG-2014,1977,,Y
CDISCPILOT01,701,1034,5,LEVOTHROID,UNCODED,,UNCODED,0.15,mg,QD,ORAL,WEEK 8,26-AUG-2014,1977,,Y
CDISCPILOT01,701,1034,5,LEVOTHROID,UNCODED,,UNCODED,0.15,mg,QD,ORAL,WEEK 12,25-SEP-2014,1977,,Y
CDISCPILOT01,701,1034,5,LEVOTHROID,UNCODED,,UNCODED,0.15,mg,QD,ORAL,WEEK 16,21-OCT-2014,1977,,Y
CDISCPILOT01,701,1034,5,LEVOTHROID,UNCODED,,UNCODED,0.15,mg,QD,ORAL,WEEK 20,18-NOV-2014,1977,,Y
CDISCPILOT01,701,1034,5,LEVOTHROID,UNCODED,,UNCODED,0.15,mg,QD,ORAL,WEEK 24,17-DEC-2014,1977,,Y
CDISCPILOT01,701,1034,5,LEVOTHROID,UNCODED,,UNCODED,0.15,mg,QD,ORAL,WEEK 26,30-DEC-2014,1977,,Y
CDISCPILOT01,701,1034,6,VITAMIN C,UNCODED,PROPHYLAXIS OR NON-THERAPEUTIC USE,UNCODED,1,TABLET,QD,ORAL,SCREENING 1,24-JUN-2014,1986,,Y
CDISCPILOT01,701,1034,6,VITAMIN C,UNCODED,PROPHYLAXIS OR NON-THERAPEUTIC USE,UNCODED,1,TABLET,QD,ORAL,SCREENING 2,29-JUN-2014,1986,,Y
CDISCPILOT01,701,1034,6,VITAMIN C,UNCODED,PROPHYLAXIS OR NON-THERAPEUTIC USE,UNCODED,1,TABLET,QD,ORAL,BASELINE,01-JUL-2014,1986,,Y
CDISCPILOT01,701,1034,6,VITAMIN C,UNCODED,PROPHYLAXIS OR NON-THERAPEUTIC USE,UNCODED,1,TABLET,QD,ORAL,WEEK 2,15-JUL-2014,1986,,Y
CDISCPILOT01,701,1034,6,VITAMIN C,UNCODED,PROPHYLAXIS OR NON-THERAPEUTIC USE,UNCODED,1,TABLET,QD,ORAL,WEEK 4,29-JUL-2014,1986,,Y
CDISCPILOT01,701,1034,6,VITAMIN C,UNCODED,PROPHYLAXIS OR NON-THERAPEUTIC USE,UNCODED,1,TABLET,QD,ORAL,AMBUL ECG REMOVAL,31-JUL-2014,1986,,Y
CDISCPILOT01,701,1034,6,VITAMIN C,UNCODED,PROPHYLAXIS OR NON-THERAPEUTIC USE,UNCODED,1,TABLET,QD,ORAL,WEEK 6,11-AUG-2014,1986,,Y
CDISCPILOT01,701,1034,6,VITAMIN C,UNCODED,PROPHYLAXIS OR NON-THERAPEUTIC USE,UNCODED,1,TABLET,QD,ORAL,WEEK 8,26-AUG-2014,1986,,Y
CDISCPILOT01,701,1034,6,VITAMIN C,UNCODED,PROPHYLAXIS OR NON-THERAPEUTIC USE,UNCODED,1,TABLET,QD,ORAL,WEEK 12,25-SEP-2014,1986,,Y
CDISCPILOT01,701,1034,6,VITAMIN C,UNCODED,PROPHYLAXIS OR NON-THERAPEUTIC USE,UNCODED,1,TABLET,QD,ORAL,WEEK 16,21-OCT-2014,1986,,Y
CDISCPILOT01,701,1034,6,VITAMIN C,UNCODED,PROPHYLAXIS OR NON-THERAPEUTIC USE,UNCODED,1,TABLET,QD,ORAL,WEEK 20,18-NOV-2014,1986,,Y
CDISCPILOT01,701,1034,6,VITAMIN C,UNCODED,PROPHYLAXIS OR NON-THERAPEUTIC USE,UNCODED,1,TABLET,QD,ORAL,WEEK 24,17-DEC-2014,1986,,Y
CDISCPILOT01,701,1034,6,VITAMIN C,UNCODED,PROPHYLAXIS OR NON-THERAPEUTIC USE,UNCODED,1,TABLET,QD,ORAL,WEEK 26,30-DEC-2014,1986,,Y
CDISCPILOT01,701,1034,7,VITAMIN E,UNCODED,PROPHYLAXIS OR NON-THERAPEUTIC USE,UNCODED,1,TABLET,QD,ORAL,SCREENING 1,24-JUN-2014,1986,,Y
CDISCPILOT01,701,1034,7,VITAMIN E,UNCODED,PROPHYLAXIS OR NON-THERAPEUTIC USE,UNCODED,1,TABLET,QD,ORAL,SCREENING 2,29-JUN-2014,1986,,Y
CDISCPILOT01,701,1034,7,VITAMIN E,UNCODED,PROPHYLAXIS OR NON-THERAPEUTIC USE,UNCODED,1,TABLET,QD,ORAL,BASELINE,01-JUL-2014,1986,,Y
CDISCPILOT01,701,1034,7,VITAMIN E,UNCODED,PROPHYLAXIS OR NON-THERAPEUTIC USE,UNCODED,1,TABLET,QD,ORAL,WEEK 2,15-JUL-2014,1986,,Y
CDISCPILOT01,701,1034,7,VITAMIN E,UNCODED,PROPHYLAXIS OR NON-THERAPEUTIC USE,UNCODED,1,TABLET,QD,ORAL,WEEK 4,29-JUL-2014,1986,,Y
CDISCPILOT01,701,1034,7,VITAMIN E,UNCODED,PROPHYLAXIS OR NON-THERAPEUTIC USE,UNCODED,1,TABLET,QD,ORAL,AMBUL ECG REMOVAL,31-JUL-2014,1986,,Y
CDISCPILOT01,701,1034,7,VITAMIN E,UNCODED,PROPHYLAXIS OR NON-THERAPEUTIC USE,UNCODED,1,TABLET,QD,ORAL,WEEK 6,11-AUG-2014,1986,,Y
CDISCPILOT01,701,1034,7,VITAMIN E,UNCODED,PROPHYLAXIS OR NON-THERAPEUTIC USE,UNCODED,1,TABLET,QD,ORAL,WEEK 8,26-AUG-2014,1986,,Y
CDISCPILOT01,701,1034,7,VITAMIN E,UNCODED,PROPHYLAXIS OR NON-THERAPEUTIC USE,UNCODED,1,TABLET,QD,ORAL,WEEK 12,25-SEP-2014,1986,,Y
CDISCPILOT01,701,1034,7,VITAMIN E,UNCODED,PROPHYLAXIS OR NON-THERAPEUTIC USE,UNCODED,1,TABLET,QD,ORAL,WEEK 16,21-OCT-2014,1986,,Y
CDISCPILOT01,701,1034,7,VITAMIN E,UNCODED,PROPHYLAXIS OR NON-THERAPEUTIC USE,UNCODED,1,TABLET,QD,ORAL,WEEK 20,18-NOV-2014,1986,,Y
CDISCPILOT01,701,1034,7,VITAMIN E,UNCODED,PROPHYLAXIS OR NON-THERAPEUTIC USE,UNCODED,1,TABLET,QD,ORAL,WEEK 24,17-DEC-2014,1986,,Y
CDISCPILOT01,701,1034,7,VITAMIN E,UNCODED,PROPHYLAXIS OR NON-THERAPEUTIC USE,UNCODED,1,TABLET,QD,ORAL,WEEK 26,30-DEC-2014,1986,,Y
CDISCPILOT01,701,1034,8,HYDROCORTISONE,HYDROCORTISONE,,"SYSTEMIC HORMONAL PREPARATIONS, EXCL.",1,VIAL,BID,TOPICAL,WEEK 12,25-SEP-2014,27-AUG-2014,,Y
CDISCPILOT01,701,1034,8,HYDROCORTISONE,HYDROCORTISONE,,"SYSTEMIC HORMONAL PREPARATIONS, EXCL.",1,VIAL,BID,TOPICAL,WEEK 16,21-OCT-2014,27-AUG-2014,,Y
CDISCPILOT01,701,1034,8,HYDROCORTISONE,HYDROCORTISONE,,"SYSTEMIC HORMONAL PREPARATIONS, EXCL.",1,VIAL,BID,TOPICAL,WEEK 20,18-NOV-2014,27-AUG-2014,,Y
CDISCPILOT01,701,1034,8,HYDROCORTISONE,HYDROCORTISONE,,"SYSTEMIC HORMONAL PREPARATIONS, EXCL.",1,VIAL,BID,TOPICAL,WEEK 24,17-DEC-2014,27-AUG-2014,,Y
CDISCPILOT01,701,1034,8,HYDROCORTISONE,HYDROCORTISONE,,"SYSTEMIC HORMONAL PREPARATIONS, EXCL.",1,VIAL,BID,TOPICAL,WEEK 26,30-DEC-2014,27-AUG-2014,,Y
CDISCPILOT01,701,1047,1,ALEVE,NAPROXEN SODIUM,,RESPIRATORY SYSTEM,250,TABLET,PRN,ORAL,SCREENING 1,22-JAN-2013,2009,,Y
CDISCPILOT01,701,1047,1,ALEVE,NAPROXEN SODIUM,,RESPIRATORY SYSTEM,250,TABLET,PRN,ORAL,SCREENING 2,10-FEB-2013,2009,,Y
CDISCPILOT01,701,1047,1,ALEVE,NAPROXEN SODIUM,,RESPIRATORY SYSTEM,250,TABLET,PRN,ORAL,BASELINE,12-FEB-2013,2009,,Y
CDISCPILOT01,701,1047,1,ALEVE,NAPROXEN SODIUM,,RESPIRATORY SYSTEM,250,TABLET,PRN,ORAL,WEEK 2,25-FEB-2013,2009,,Y
CDISCPILOT01,701,1047,1,ALEVE,NAPROXEN SODIUM,,RESPIRATORY SYSTEM,250,TABLET,PRN,ORAL,WEEK 4,10-MAR-2013,2009,,Y
CDISCPILOT01,701,1047,1,ALEVE,NAPROXEN SODIUM,,RESPIRATORY SYSTEM,250,TABLET,PRN,ORAL,AMBUL ECG REMOVAL,29-MAR-2013,2009,,Y
CDISCPILOT01,701,1047,1,ALEVE,NAPROXEN SODIUM,,RESPIRATORY SYSTEM,250,TABLET,PRN,ORAL,RETRIEVAL,28-JUL-2013,2009,,Y
CDISCPILOT01,701,1047,2,CENTRUM,UNCODED,PROPHYLAXIS OR NON-THERAPEUTIC USE,UNCODED,1,TABLET,QD,ORAL,SCREENING 1,22-JAN-2013,2002,,Y
CDISCPILOT01,701,1047,2,CENTRUM,UNCODED,PROPHYLAXIS OR NON-THERAPEUTIC USE,UNCODED,1,TABLET,QD,ORAL,SCREENING 2,10-FEB-2013,2002,,Y
CDISCPILOT01,701,1047,2,CENTRUM,UNCODED,PROPHYLAXIS OR NON-THERAPEUTIC USE,UNCODED,1,TABLET,QD,ORAL,BASELINE,12-FEB-2013,2002,,Y
CDISCPILOT01,701,1047,2,CENTRUM,UNCODED,PROPHYLAXIS OR NON-THERAPEUTIC USE,UNCODED,1,TABLET,QD,ORAL,WEEK 2,25-FEB-2013,2002,,Y
CDISCPILOT01,701,1047,2,CENTRUM,UNCODED,PROPHYLAXIS OR NON-THERAPEUTIC USE,UNCODED,1,TABLET,QD,ORAL,WEEK 4,10-MAR-2013,2002,,Y
CDISCPILOT01,701,1047,2,CENTRUM,UNCODED,PROPHYLAXIS OR NON-THERAPEUTIC USE,UNCODED,1,TABLET,QD,ORAL,AMBUL ECG REMOVAL,29-MAR-2013,2002,,Y
CDISCPILOT01,701,1047,2,CENTRUM,UNCODED,PROPHYLAXIS OR NON-THERAPEUTIC USE,UNCODED,1,TABLET,QD,ORAL,RETRIEVAL,28-JUL-2013,2002,,Y
CDISCPILOT01,701,1047,3,PAPAYA,UNCODED,,UNCODED,2,TABLET,PRN,ORAL,SCREENING 1,22-JAN-2013,OCT-2012,,Y
CDISCPILOT01,701,1047,3,PAPAYA,UNCODED,,UNCODED,2,TABLET,PRN,ORAL,SCREENING 2,10-FEB-2013,OCT-2012,,Y
CDISCPILOT01,701,1047,3,PAPAYA,UNCODED,,UNCODED,2,TABLET,PRN,ORAL,BASELINE,12-FEB-2013,OCT-2012,,Y
CDISCPILOT01,701,1047,3,PAPAYA,UNCODED,,UNCODED,2,TABLET,PRN,ORAL,WEEK 2,25-FEB-2013,OCT-2012,,Y
CDISCPILOT01,701,1047,3,PAPAYA,UNCODED,,UNCODED,2,TABLET,PRN,ORAL,WEEK 4,10-MAR-2013,OCT-2012,,Y
CDISCPILOT01,701,1047,3,PAPAYA,UNCODED,,UNCODED,2,TABLET,PRN,ORAL,AMBUL ECG REMOVAL,29-MAR-2013,OCT-2012,,Y
CDISCPILOT01,701,1047,3,PAPAYA,UNCODED,,UNCODED,2,TABLET,PRN,ORAL,RETRIEVAL,28-JUL-2013,OCT-2012,,Y
CDISCPILOT01,701,1047,4,PSORCON,UNCODED,,UNCODED,0.5,% (v/v),QID,TOPICAL,SCREENING 1,22-JAN-2013,2009,,Y
CDISCPILOT01,701,1047,4,PSORCON,UNCODED,,UNCODED,0.5,% (v/v),QID,TOPICAL,SCREENING 2,10-FEB-2013,2009,,Y
CDISCPILOT01,701,1047,4,PSORCON,UNCODED,,UNCODED,0.5,% (v/v),QID,TOPICAL,BASELINE,12-FEB-2013,2009,,Y
CDISCPILOT01,701,1047,4,PSORCON,UNCODED,,UNCODED,0.5,% (v/v),QID,TOPICAL,WEEK 2,25-FEB-2013,2009,,Y
CDISCPILOT01,701,1047,4,PSORCON,UNCODED,,UNCODED,0.5,% (v/v),QID,TOPICAL,WEEK 4,10-MAR-2013,2009,,Y
CDISCPILOT01,701,1047,4,PSORCON,UNCODED,,UNCODED,0.5,% (v/v),QID,TOPICAL,AMBUL ECG REMOVAL,29-MAR-2013,2009,,Y
CDISCPILOT01,701,1047,4,PSORCON,UNCODED,,UNCODED,0.5,% (v/v),QID,TOPICAL,RETRIEVAL,28-JUL-2013,2009,,Y
CDISCPILOT01,701,1047,5,SYNTHROID,UNCODED,,UNCODED,0.15,mg,QD,ORAL,SCREENING 1,22-JAN-2013,2009,,Y
CDISCPILOT01,701,1047,5,SYNTHROID,UNCODED,,UNCODED,0.15,mg,QD,ORAL,SCREENING 2,10-FEB-2013,2009,,Y
CDISCPILOT01,701,1047,5,SYNTHROID,UNCODED,,UNCODED,0.15,mg,QD,ORAL,BASELINE,12-FEB-2013,2009,,Y
CDISCPILOT01,701,1047,5,SYNTHROID,UNCODED,,UNCODED,0.15,mg,QD,ORAL,WEEK 2,25-FEB-2013,2009,,Y
CDISCPILOT01,701,1047,5,SYNTHROID,UNCODED,,UNCODED,0.15,mg,QD,ORAL,WEEK 4,10-MAR-2013,2009,,Y
CDISCPILOT01,701,1047,5,SYNTHROID,UNCODED,,UNCODED,0.15,mg,QD,ORAL,AMBUL ECG REMOVAL,29-MAR-2013,2009,,Y
CDISCPILOT01,701,1047,5,SYNTHROID,UNCODED,,UNCODED,0.15,mg,QD,ORAL,RETRIEVAL,28-JUL-2013,2009,,Y
CDISCPILOT01,701,1047,6,FELDENE,UNCODED,,UNCODED,10,mg,QD,ORAL,SCREENING 2,10-FEB-2013,01-FEB-2013,01-FEB-2013,N
CDISCPILOT01,701,1047,7,ROBITUSSIN-DM,UNCODED,,UNCODED,2,tsp,QID,ORAL,WEEK 4,10-MAR-2013,07-MAR-2013,,Y
CDISCPILOT01,701,1047,7,ROBITUSSIN-DM,UNCODED,,UNCODED,2,tsp,QID,ORAL,AMBUL ECG REMOVAL,29-MAR-2013,07-MAR-2013,,Y
CDISCPILOT01,701,1047,7,ROBITUSSIN-DM,UNCODED,,UNCODED,2,tsp,QID,ORAL,RETRIEVAL,28-JUL-2013,07-MAR-2013,,Y
CDISCPILOT01,701,1047,8,SUDAFED,UNCODED,,UNCODED,2,TABLET,QID,ORAL,WEEK 4,10-MAR-2013,07-MAR-2013,,Y
CDISCPILOT01,701,1047,8,SUDAFED,UNCODED,,UNCODED,2,TABLET,QID,ORAL,AMBUL ECG REMOVAL,29-MAR-2013,07-MAR-2013,,Y
CDISCPILOT01,701,1047,8,SUDAFED,UNCODED,,UNCODED,2,TABLET,QID,ORAL,RETRIEVAL,28-JUL-2013,07-MAR-2013,,Y
CDISCPILOT01,701,1097,1,CENTRUM,UNCODED,PROPHYLAXIS OR NON-THERAPEUTIC USE,UNCODED,1,TABLET,QD,ORAL,SCREENING 1,23-DEC-2013,OCT-2013,,Y
CDISCPILOT01,701,1097,1,CENTRUM,UNCODED,PROPHYLAXIS OR NON-THERAPEUTIC USE,UNCODED,1,TABLET,QD,ORAL,SCREENING 2,30-DEC-2013,OCT-2013,,Y
CDISCPILOT01,701,1097,1,CENTRUM,UNCODED,PROPHYLAXIS OR NON-THERAPEUTIC USE,UNCODED,1,TABLET,QD,ORAL,BASELINE,01-JAN-2014,OCT-2013,,Y
CDISCPILOT01,701,1097,1,CENTRUM,UNCODED,PROPHYLAXIS OR NON-THERAPEUTIC USE,UNCODED,1,TABLET,QD,ORAL,WEEK 2,15-JAN-2014,OCT-2013,,Y
CDISCPILOT01,701,1097,1,CENTRUM,UNCODED,PROPHYLAXIS OR NON-THERAPEUTIC USE,UNCODED,1,TABLET,QD,ORAL,WEEK 4,29-JAN-2014,OCT-2013,,Y
CDISCPILOT01,701,1097,1,CENTRUM,UNCODED,PROPHYLAXIS OR NON-THERAPEUTIC USE,UNCODED,1,TABLET,QD,ORAL,AMBUL ECG REMOVAL,04-FEB-2014,OCT-2013,,Y
CDISCPILOT01,701,1097,1,CENTRUM,UNCODED,PROPHYLAXIS OR NON-THERAPEUTIC USE,UNCODED,1,TABLET,QD,ORAL,WEEK 6,11-FEB-2014,OCT-2013,,Y
CDISCPILOT01,701,1097,1,CENTRUM,UNCODED,PROPHYLAXIS OR NON-THERAPEUTIC USE,UNCODED,1,TABLET,QD,ORAL,WEEK 8,26-FEB-2014,OCT-2013,,Y
CDISCPILOT01,701,1097,1,CENTRUM,UNCODED,PROPHYLAXIS OR NON-THERAPEUTIC USE,UNCODED,1,TABLET,QD,ORAL,WEEK 12,26-MAR-2014,OCT-2013,,Y
CDISCPILOT01,701,1097,1,CENTRUM,UNCODED,PROPHYLAXIS OR NON-THERAPEUTIC USE,UNCODED,1,TABLET,QD,ORAL,WEEK 16,23-APR-2014,OCT-2013,,Y
CDISCPILOT01,701,1097,1,CENTRUM,UNCODED,PROPHYLAXIS OR NON-THERAPEUTIC USE,UNCODED,1,TABLET,QD,ORAL,WEEK 20,21-MAY-2014,OCT-2013,,Y
CDISCPILOT01,701,1097,1,CENTRUM,UNCODED,PROPHYLAXIS OR NON-THERAPEUTIC USE,UNCODED,1,TABLET,QD,ORAL,WEEK 24,18-JUN-2014,OCT-2013,,Y
CDISCPILOT01,701,1097,1,CENTRUM,UNCODED,PROPHYLAXIS OR NON-THERAPEUTIC USE,UNCODED,1,TABLET,QD,ORAL,WEEK 26,09-JUL-2014,OCT-2013,,Y
CDISCPILOT01,701,1097,2,HYDROCORTISONE,HYDROCORTISONE,,"SYSTEMIC HORMONAL PREPARATIONS, EXCL.",1,VIAL,QD,TOPICAL,WEEK 8,26-FEB-2014,20-FEB-2014,25-FEB-2014,N
CDISCPILOT01,701,1097,3,HYDROCORTISONE,HYDROCORTISONE,,"SYSTEMIC HORMONAL PREPARATIONS, EXCL.",1,VIAL,QD,TOPICAL,WEEK 12,26-MAR-2014,21-MAR-2014,23-MAR-2014,N
CDISCPILOT01,701,1097,4,HYDROCORTISONE,HYDROCORTISONE,,"SYSTEMIC HORMONAL PREPARATIONS, EXCL.",1,VIAL,QD,TOPICAL,WEEK 16,23-APR-2014,18-APR-2014,22-APR-2014,N
CDISCPILOT01,701,1097,5,HYDROCORTISONE,HYDROCORTISONE,,"SYSTEMIC HORMONAL PREPARATIONS, EXCL.",1,VIAL,PRN,TOPICAL,WEEK 24,18-JUN-2014,23-MAY-2014,,Y
CDISCPILOT01,701,1097,5,HYDROCORTISONE,HYDROCORTISONE,,"SYSTEMIC HORMONAL PREPARATIONS, EXCL.",1,VIAL,PRN,TOPICAL,WEEK 26,09-JUL-2014,23-MAY-2014,,Y
CDISCPILOT01,701,1111,1,KEFLEX,UNCODED,,UNCODED,500,mg,QID,ORAL,SCREENING 1,25-AUG-2012,08-JUL-2012,,Y
CDISCPILOT01,701,1111,1,KEFLEX,UNCODED,,UNCODED,500,mg,QID,ORAL,SCREENING 2,05-SEP-2012,08-JUL-2012,,Y
CDISCPILOT01,701,1111,1,KEFLEX,UNCODED,,UNCODED,500,mg,QID,ORAL,BASELINE,07-SEP-2012,08-JUL-2012,,Y
CDISCPILOT01,701,1111,1,KEFLEX,UNCODED,,UNCODED,500,mg,QID,ORAL,WEEK 2,17-SEP-2012,08-JUL-2012,,Y
CDISCPILOT01,701,1111,1,KEFLEX,UNCODED,,UNCODED,500,mg,QID,ORAL,AE FOLLOW-UP,29-SEP-2012,08-JUL-2012,,Y
CDISCPILOT01,701,1111,1,KEFLEX,UNCODED,,UNCODED,500,mg,QID,ORAL,RETRIEVAL,22-FEB-2013,08-JUL-2012,,Y
CDISCPILOT01,701,1111,2,LISINOPRIL,UNCODED,,UNCODED,2.5,mg,QD,ORAL,SCREENING 1,25-AUG-2012,2006,,Y
CDISCPILOT01,701,1111,2,LISINOPRIL,UNCODED,,UNCODED,2.5,mg,QD,ORAL,SCREENING 2,05-SEP-2012,2006,,Y
CDISCPILOT01,701,1111,2,LISINOPRIL,UNCODED,,UNCODED,2.5,mg,QD,ORAL,BASELINE,07-SEP-2012,2006,,Y
CDISCPILOT01,701,1111,2,LISINOPRIL,UNCODED,,UNCODED,2.5,mg,QD,ORAL,WEEK 2,17-SEP-2012,2006,,Y
CDISCPILOT01,701,1111,2,LISINOPRIL,UNCODED,,UNCODED,2.5,mg,QD,ORAL,AE FOLLOW-UP,29-SEP-2012,2006,,Y
CDISCPILOT01,701,1111,2,LISINOPRIL,UNCODED,,UNCODED,2.5,mg,QD,ORAL,RETRIEVAL,22-FEB-2013,2006,,Y
CDISCPILOT01,701,1111,3,MOTRIN,UNCODED,,UNCODED,1,TABLET,PRN,ORAL,SCREENING 1,25-AUG-2012,2009,,Y
CDISCPILOT01,701,1111,3,MOTRIN,UNCODED,,UNCODED,1,TABLET,PRN,ORAL,SCREENING 2,05-SEP-2012,2009,,Y
CDISCPILOT01,701,1111,3,MOTRIN,UNCODED,,UNCODED,1,TABLET,PRN,ORAL,BASELINE,07-SEP-2012,2009,,Y
CDISCPILOT01,701,1111,3,MOTRIN,UNCODED,,UNCODED,1,TABLET,PRN,ORAL,WEEK 2,17-SEP-2012,2009,,Y
CDISCPILOT01,701,1111,3,MOTRIN,UNCODED,,UNCODED,1,TABLET,PRN,ORAL,AE FOLLOW-UP,29-SEP-2012,2009,,Y
CDISCPILOT01,701,1111,3,MOTRIN,UNCODED,,UNCODED,1,TABLET,PRN,ORAL,RETRIEVAL,22-FEB-2013,2009,,Y
CDISCPILOT01,701,1111,4,PREMARIN,ESTROGENS CONJUGATED,,GENITO URINARY SYSTEM AND SEX HORMONES,0.625,mg,,ORAL,SCREENING 1,25-AUG-2012,1996,,Y
CDISCPILOT01,701,1111,4,PREMARIN,ESTROGENS CONJUGATED,,GENITO URINARY SYSTEM AND SEX HORMONES,0.625,mg,,ORAL,SCREENING 2,05-SEP-2012,1996,,Y
CDISCPILOT01,701,1111,4,PREMARIN,ESTROGENS CONJUGATED,,GENITO URINARY SYSTEM AND SEX HORMONES,0.625,mg,,ORAL,BASELINE,07-SEP-2012,1996,,Y
CDISCPILOT01,701,1111,4,PREMARIN,ESTROGENS CONJUGATED,,GENITO URINARY SYSTEM AND SEX HORMONES,0.625,mg,,ORAL,WEEK 2,17-SEP-2012,1996,,Y
CDISCPILOT01,701,1111,4,PREMARIN,ESTROGENS CONJUGATED,,GENITO URINARY SYSTEM AND SEX HORMONES,0.625,mg,,ORAL,AE FOLLOW-UP,29-SEP-2012,1996,,Y
CDISCPILOT01,701,1111,4,PREMARIN,ESTROGENS CONJUGATED,,GENITO URINARY SYSTEM AND SEX HORMONES,0.625,mg,,ORAL,RETRIEVAL,22-FEB-2013,1996,,Y
CDISCPILOT01,701,1111,5,PROVERA,UNCODED,,UNCODED,2.5,mg,,ORAL,SCREENING 1,25-AUG-2012,1996,,Y
CDISCPILOT01,701,1111,5,PROVERA,UNCODED,,UNCODED,2.5,mg,,ORAL,SCREENING 2,05-SEP-2012,1996,,Y
CDISCPILOT01,701,1111,5,PROVERA,UNCODED,,UNCODED,2.5,mg,,ORAL,BASELINE,07-SEP-2012,1996,,Y
CDISCPILOT01,701,1111,5,PROVERA,UNCODED,,UNCODED,2.5,mg,,ORAL,WEEK 2,17-SEP-2012,1996,,Y
CDISCPILOT01,701,1111,5,PROVERA,UNCODED,,UNCODED,2.5,mg,,ORAL,AE FOLLOW-UP,29-SEP-2012,1996,,Y
CDISCPILOT01,701,1111,5,PROVERA,UNCODED,,UNCODED,2.5,mg,,ORAL,RETRIEVAL,22-FEB-2013,1996,,Y
CDISCPILOT01,701,1111,6,SYNTHROID,UNCODED,,UNCODED,0.075,mg,QD,ORAL,SCREENING 1,25-AUG-2012,1983,,Y
CDISCPILOT01,701,1111,6,SYNTHROID,UNCODED,,UNCODED,0.075,mg,QD,ORAL,SCREENING 2,05-SEP-2012,1983,,Y
CDISCPILOT01,701,1111,6,SYNTHROID,UNCODED,,UNCODED,0.075,mg,QD,ORAL,BASELINE,07-SEP-2012,1983,,Y
CDISCPILOT01,701,1111,6,SYNTHROID,UNCODED,,UNCODED,0.075,mg,QD,ORAL,WEEK 2,17-SEP-2012,1983,,Y
CDISCPILOT01,701,1111,6,SYNTHROID,UNCODED,,UNCODED,0.075,mg,QD,ORAL,AE FOLLOW-UP,29-SEP-2012,1983,,Y
CDISCPILOT01,701,1111,6,SYNTHROID,UNCODED,,UNCODED,0.075,mg,QD,ORAL,RETRIEVAL,22-FEB-2013,1983,,Y
CDISCPILOT01,701,1111,7,"HYDROCORTISONE, TOPICAL",UNCODED,,UNCODED,1,VIAL,PRN,TOPICAL,SCREENING 2,05-SEP-2012,02-SEP-2012,04-SEP-2012,N
CDISCPILOT01,701,1115,1,ASPIRIN,ACETYLSALICYLIC ACID,,NERVOUS SYSTEM,1,TABLET,QD,ORAL,SCREENING 1,23-NOV-2012,2011,,Y
CDISCPILOT01,701,1115,1,ASPIRIN,ACETYLSALICYLIC ACID,,NERVOUS SYSTEM,1,TABLET,QD,ORAL,SCREENING 2,28-NOV-2012,2011,,Y
CDISCPILOT01,701,1115,1,ASPIRIN,ACETYLSALICYLIC ACID,,NERVOUS SYSTEM,1,TABLET,QD,ORAL,BASELINE,30-NOV-2012,2011,,Y
CDISCPILOT01,701,1115,1,ASPIRIN,ACETYLSALICYLIC ACID,,NERVOUS SYSTEM,1,TABLET,QD,ORAL,WEEK 2,13-DEC-2012,2011,,Y
CDISCPILOT01,701,1115,1,ASPIRIN,ACETYLSALICYLIC ACID,,NERVOUS SYSTEM,1,TABLET,QD,ORAL,WEEK 4,26-DEC-2012,2011,,Y
CDISCPILOT01,701,1115,1,ASPIRIN,ACETYLSALICYLIC ACID,,NERVOUS SYSTEM,1,TABLET,QD,ORAL,AMBUL ECG REMOVAL,28-DEC-2012,2011,,Y
CDISCPILOT01,701,1115,1,ASPIRIN,ACETYLSALICYLIC ACID,,NERVOUS SYSTEM,1,TABLET,QD,ORAL,WEEK 6,10-JAN-2013,2011,,Y
CDISCPILOT01,701,1115,1,ASPIRIN,ACETYLSALICYLIC ACID,,NERVOUS SYSTEM,1,TABLET,QD,ORAL,WEEK 8,23-JAN-2013,2011,,Y
CDISCPILOT01,701,1115,1,ASPIRIN,ACETYLSALICYLIC ACID,,NERVOUS SYSTEM,1,TABLET,QD,ORAL,AE FOLLOW-UP,14-FEB-2013,2011,,Y
CDISCPILOT01,701,1115,1,ASPIRIN,ACETYLSALICYLIC ACID,,NERVOUS SYSTEM,1,TABLET,QD,ORAL,RETRIEVAL,20-MAY-2013,2011,,Y
CDISCPILOT01,701,1115,2,METAMUCIL,UNCODED,,UNCODED,1,Tbsp,PRN,ORAL,SCREENING 1,23-NOV-2012,AUG-2012,,Y
CDISCPILOT01,701,1115,2,METAMUCIL,UNCODED,,UNCODED,1,Tbsp,PRN,ORAL,SCREENING 2,28-NOV-2012,AUG-2012,,Y
CDISCPILOT01,701,1115,2,METAMUCIL,UNCODED,,UNCODED,1,Tbsp,PRN,ORAL,BASELINE,30-NOV-2012,AUG-2012,,Y
CDISCPILOT01,701,1115,2,METAMUCIL,UNCODED,,UNCODED,1,Tbsp,PRN,ORAL,WEEK 2,13-DEC-2012,AUG-2012,,Y
CDISCPILOT01,701,1115,2,METAMUCIL,UNCODED,,UNCODED,1,Tbsp,PRN,ORAL,WEEK 4,26-DEC-2012,AUG-2012,,Y
CDISCPILOT01,701,1115,2,METAMUCIL,UNCODED,,UNCODED,1,Tbsp,PRN,ORAL,AMBUL ECG REMOVAL,28-DEC-2012,AUG-2012,,Y
CDISCPILOT01,701,1115,2,METAMUCIL,UNCODED,,UNCODED,1,Tbsp,PRN,ORAL,WEEK 6,10-JAN-2013,AUG-2012,,Y
CDISCPILOT01,701,1115,2,METAMUCIL,UNCODED,,UNCODED,1,Tbsp,PRN,ORAL,WEEK 8,23-JAN-2013,AUG-2012,,Y
CDISCPILOT01,701,1115,2,METAMUCIL,UNCODED,,UNCODED,1,Tbsp,PRN,ORAL,AE FOLLOW-UP,14-FEB-2013,AUG-2012,,Y
CDISCPILOT01,701,1115,2,METAMUCIL,UNCODED,,UNCODED,1,Tbsp,PRN,ORAL,RETRIEVAL,20-MAY-2013,AUG-2012,,Y
CDISCPILOT01,701,1115,3,"HYDROCORTISONE, TOPICAL",UNCODED,,UNCODED,1,VIAL,PRN,TOPICAL,WEEK 8,23-JAN-2013,11-JAN-2013,,Y
CDISCPILOT01,701,1115,3,"HYDROCORTISONE, TOPICAL",UNCODED,,UNCODED,1,VIAL,PRN,TOPICAL,AE FOLLOW-UP,14-FEB-2013,11-JAN-2013,,Y
CDISCPILOT01,701,1115,3,"HYDROCORTISONE, TOPICAL",UNCODED,,UNCODED,1,VIAL,PRN,TOPICAL,RETRIEVAL,20-MAY-2013,11-JAN-2013,,Y
CDISCPILOT01,701,1115,4,ASPIRIN,ACETYLSALICYLIC ACID,PROPHYLAXIS OR NON-THERAPEUTIC USE,NERVOUS SYSTEM,80,mg,QD,ORAL,RETRIEVAL,20-MAY-2013,29-APR-2013,,Y
CDISCPILOT01,701,1115,5,FEOSOL,UNCODED,PROPHYLAXIS OR NON-THERAPEUTIC USE,UNCODED,325,mg,BID,ORAL,RETRIEVAL,20-MAY-2013,29-APR-2013,,Y
CDISCPILOT01,701,1115,6,HYTRIN,UNCODED,,UNCODED,2,mg,QD,ORAL,RETRIEVAL,20-MAY-2013,19-APR-2013,14-MAY-2013,N
CDISCPILOT01,701,1115,7,PRAVACHOL,UNCODED,,UNCODED,20,mg,QD,ORAL,RETRIEVAL,20-MAY-2013,08-MAY-2013,,Y
CDISCPILOT01,701,1118,1,ASPIRIN,ACETYLSALICYLIC ACID,PROPHYLAXIS OR NON-THERAPEUTIC USE,NERVOUS SYSTEM,325,mg,PRN,ORAL,SCREENING 1,27-FEB-2014,10-DEC-2000,,Y
CDISCPILOT01,701,1118,1,ASPIRIN,ACETYLSALICYLIC ACID,PROPHYLAXIS OR NON-THERAPEUTIC USE,NERVOUS SYSTEM,325,mg,PRN,ORAL,SCREENING 2,10-MAR-2014,10-DEC-2000,,Y
CDISCPILOT01,701,1118,1,ASPIRIN,ACETYLSALICYLIC ACID,PROPHYLAXIS OR NON-THERAPEUTIC USE,NERVOUS SYSTEM,325,mg,PRN,ORAL,BASELINE,12-MAR-2014,10-DEC-2000,,Y
CDISCPILOT01,701,1118,1,ASPIRIN,ACETYLSALICYLIC ACID,PROPHYLAXIS OR NON-THERAPEUTIC USE,NERVOUS SYSTEM,325,mg,PRN,ORAL,WEEK 2,26-MAR-2014,10-DEC-2000,,Y
CDISCPILOT01,701,1118,1,ASPIRIN,ACETYLSALICYLIC ACID,PROPHYLAXIS OR NON-THERAPEUTIC USE,NERVOUS SYSTEM,325,mg,PRN,ORAL,WEEK 4,09-APR-2014,10-DEC-2000,,Y
CDISCPILOT01,701,1118,1,ASPIRIN,ACETYLSALICYLIC ACID,PROPHYLAXIS OR NON-THERAPEUTIC USE,NERVOUS SYSTEM,325,mg,PRN,ORAL,AMBUL ECG REMOVAL,11-APR-2014,10-DEC-2000,,Y
CDISCPILOT01,701,1118,1,ASPIRIN,ACETYLSALICYLIC ACID,PROPHYLAXIS OR NON-THERAPEUTIC USE,NERVOUS SYSTEM,325,mg,PRN,ORAL,WEEK 6,23-APR-2014,10-DEC-2000,,Y
CDISCPILOT01,701,1118,1,ASPIRIN,ACETYLSALICYLIC ACID,PROPHYLAXIS OR NON-THERAPEUTIC USE,NERVOUS SYSTEM,325,mg,PRN,ORAL,WEEK 8,08-MAY-2014,10-DEC-2000,,Y
CDISCPILOT01,701,1118,1,ASPIRIN,ACETYLSALICYLIC ACID,PROPHYLAXIS OR NON-THERAPEUTIC USE,NERVOUS SYSTEM,325,mg,PRN,ORAL,WEEK 12,05-JUN-2014,10-DEC-2000,,Y
CDISCPILOT01,701,1118,1,ASPIRIN,ACETYLSALICYLIC ACID,PROPHYLAXIS OR NON-THERAPEUTIC USE,NERVOUS SYSTEM,325,mg,PRN,ORAL,WEEK 16,02-JUL-2014,10-DEC-2000,,Y
CDISCPILOT01,701,1118,1,ASPIRIN,ACETYLSALICYLIC ACID,PROPHYLAXIS OR NON-THERAPEUTIC USE,NERVOUS SYSTEM,325,mg,PRN,ORAL,WEEK 20,30-JUL-2014,10-DEC-2000,,Y
CDISCPILOT01,701,1118,1,ASPIRIN,ACETYLSALICYLIC ACID,PROPHYLAXIS OR NON-THERAPEUTIC USE,NERVOUS SYSTEM,325,mg,PRN,ORAL,WEEK 24,27-AUG-2014,10-DEC-2000,,Y
CDISCPILOT01,701,1118,1,ASPIRIN,ACETYLSALICYLIC ACID,PROPHYLAXIS OR NON-THERAPEUTIC USE,NERVOUS SYSTEM,325,mg,PRN,ORAL,WEEK 26,09-SEP-2014,10-DEC-2000,,Y
CDISCPILOT01,701,1118,2,MULTIVITAMIN,UNCODED,PROPHYLAXIS OR NON-THERAPEUTIC USE,UNCODED,1,TABLET,QD,ORAL,SCREENING 1,27-FEB-2014,21-JAN-2012,,Y
CDISCPILOT01,701,1118,2,MULTIVITAMIN,UNCODED,PROPHYLAXIS OR NON-THERAPEUTIC USE,UNCODED,1,TABLET,QD,ORAL,SCREENING 2,10-MAR-2014,21-JAN-2012,,Y
CDISCPILOT01,701,1118,2,MULTIVITAMIN,UNCODED,PROPHYLAXIS OR NON-THERAPEUTIC USE,UNCODED,1,TABLET,QD,ORAL,BASELINE,12-MAR-2014,21-JAN-2012,,Y
CDISCPILOT01,701,1118,2,MULTIVITAMIN,UNCODED,PROPHYLAXIS OR NON-THERAPEUTIC USE,UNCODED,1,TABLET,QD,ORAL,WEEK 2,26-MAR-2014,21-JAN-2012,,Y
CDISCPILOT01,701,1118,2,MULTIVITAMIN,UNCODED,PROPHYLAXIS OR NON-THERAPEUTIC USE,UNCODED,1,TABLET,QD,ORAL,WEEK 4,09-APR-2014,21-JAN-2012,,Y
CDISCPILOT01,701,1118,2,MULTIVITAMIN,UNCODED,PROPHYLAXIS OR NON-THERAPEUTIC USE,UNCODED,1,TABLET,QD,ORAL,AMBUL ECG REMOVAL,11-APR-2014,21-JAN-2012,,Y
CDISCPILOT01,701,1118,2,MULTIVITAMIN,UNCODED,PROPHYLAXIS OR NON-THERAPEUTIC USE,UNCODED,1,TABLET,QD,ORAL,WEEK 6,23-APR-2014,21-JAN-2012,,Y
CDISCPILOT01,701,1118,2,MULTIVITAMIN,UNCODED,PROPHYLAXIS OR NON-THERAPEUTIC USE,UNCODED,1,TABLET,QD,ORAL,WEEK 8,08-MAY-2014,21-JAN-2012,,Y
CDISCPILOT01,701,1118,2,MULTIVITAMIN,UNCODED,PROPHYLAXIS OR NON-THERAPEUTIC USE,UNCODED,1,TABLET,QD,ORAL,WEEK 12,05-JUN-2014,21-JAN-2012,,Y
CDISCPILOT01,701,1118,2,MULTIVITAMIN,UNCODED,PROPHYLAXIS OR NON-THERAPEUTIC USE,UNCODED,1,TABLET,QD,ORAL,WEEK 16,02-JUL-2014,21-JAN-2012,,Y
CDISCPILOT01,701,1118,2,MULTIVITAMIN,UNCODED,PROPHYLAXIS OR NON-THERAPEUTIC USE,UNCODED,1,TABLET,QD,ORAL,WEEK 20,30-JUL-2014,21-JAN-2012,,Y
CDISCPILOT01,701,1118,2,MULTIVITAMIN,UNCODED,PROPHYLAXIS OR NON-THERAPEUTIC USE,UNCODED,1,TABLET,QD,ORAL,WEEK 24,27-AUG-2014,21-JAN-2012,,Y
CDISCPILOT01,701,1118,2,MULTIVITAMIN,UNCODED,PROPHYLAXIS OR NON-THERAPEUTIC USE,UNCODED,1,TABLET,QD,ORAL,WEEK 26,09-SEP-2014,21-JAN-2012,,Y
CDISCPILOT01,701,1130,1,CALCIUM,CALCIUM,PROPHYLAXIS OR NON-THERAPEUTIC USE,ALIMENTARY TRACT AND METABOLISM,1,TABLET,QD,ORAL,SCREENING 1,09-FEB-2014,2002,,Y
CDISCPILOT01,701,1130,1,CALCIUM,CALCIUM,PROPHYLAXIS OR NON-THERAPEUTIC USE,ALIMENTARY TRACT AND METABOLISM,1,TABLET,QD,ORAL,SCREENING 2,13-FEB-2014,2002,,Y
CDISCPILOT01,701,1130,1,CALCIUM,CALCIUM,PROPHYLAXIS OR NON-THERAPEUTIC USE,ALIMENTARY TRACT AND METABOLISM,1,TABLET,QD,ORAL,BASELINE,15-FEB-2014,2002,,Y
CDISCPILOT01,701,1130,1,CALCIUM,CALCIUM,PROPHYLAXIS OR NON-THERAPEUTIC USE,ALIMENTARY TRACT AND METABOLISM,1,TABLET,QD,ORAL,WEEK 2,01-MAR-2014,2002,,Y
CDISCPILOT01,701,1130,1,CALCIUM,CALCIUM,PROPHYLAXIS OR NON-THERAPEUTIC USE,ALIMENTARY TRACT AND METABOLISM,1,TABLET,QD,ORAL,WEEK 4,15-MAR-2014,2002,,Y
CDISCPILOT01,701,1130,1,CALCIUM,CALCIUM,PROPHYLAXIS OR NON-THERAPEUTIC USE,ALIMENTARY TRACT AND METABOLISM,1,TABLET,QD,ORAL,AMBUL ECG REMOVAL,17-MAR-2014,2002,,Y
CDISCPILOT01,701,1130,1,CALCIUM,CALCIUM,PROPHYLAXIS OR NON-THERAPEUTIC USE,ALIMENTARY TRACT AND METABOLISM,1,TABLET,QD,ORAL,WEEK 6,29-MAR-2014,2002,,Y
CDISCPILOT01,701,1130,1,CALCIUM,CALCIUM,PROPHYLAXIS OR NON-THERAPEUTIC USE,ALIMENTARY TRACT AND METABOLISM,1,TABLET,QD,ORAL,WEEK 8,12-APR-2014,2002,,Y
CDISCPILOT01,701,1130,1,CALCIUM,CALCIUM,PROPHYLAXIS OR NON-THERAPEUTIC USE,ALIMENTARY TRACT AND METABOLISM,1,TABLET,QD,ORAL,WEEK 12,16-MAY-2014,2002,,Y
CDISCPILOT01,701,1130,1,CALCIUM,CALCIUM,PROPHYLAXIS OR NON-THERAPEUTIC USE,ALIMENTARY TRACT AND METABOLISM,1,TABLET,QD,ORAL,WEEK 16,07-JUN-2014,2002,,Y
CDISCPILOT01,701,1130,1,CALCIUM,CALCIUM,PROPHYLAXIS OR NON-THERAPEUTIC USE,ALIMENTARY TRACT AND METABOLISM,1,TABLET,QD,ORAL,WEEK 20,02-JUL-2014,2002,,Y
CDISCPILOT01,701,1130,1,CALCIUM,CALCIUM,PROPHYLAXIS OR NON-THERAPEUTIC USE,ALIMENTARY TRACT AND METABOLISM,1,TABLET,QD,ORAL,WEEK 24,02-AUG-2014,2002,,Y
CDISCPILOT01,701,1130,1,CALCIUM,CALCIUM,PROPHYLAXIS OR NON-THERAPEUTIC USE,ALIMENTARY TRACT AND METABOLISM,1,TABLET,QD,ORAL,WEEK 26,16-AUG-2014,2002,,Y
CDISCPILOT01,701,1130,2,EUCERIN CREME,UNCODED,,UNCODED,1,VIAL,TID,TOPICAL,SCREENING 1,09-FEB-2014,SEP-2013,,Y
CDISCPILOT01,701,1130,2,EUCERIN CREME,UNCODED,,UNCODED,1,VIAL,TID,TOPICAL,SCREENING 2,13-FEB-2014,SEP-2013,,Y
CDISCPILOT01,701,1130,2,EUCERIN CREME,UNCODED,,UNCODED,1,VIAL,TID,TOPICAL,BASELINE,15-FEB-2014,SEP-2013,,Y
CDISCPILOT01,701,1130,2,EUCERIN CREME,UNCODED,,UNCODED,1,VIAL,TID,TOPICAL,WEEK 2,01-MAR-2014,SEP-2013,,Y
CDISCPILOT01,701,1130,2,EUCERIN CREME,UNCODED,,UNCODED,1,VIAL,TID,TOPICAL,WEEK 4,15-MAR-2014,SEP-2013,,Y
CDISCPILOT01,701,1130,2,EUCERIN CREME,UNCODED,,UNCODED,1,VIAL,TID,TOPICAL,AMBUL ECG REMOVAL,17-MAR-2014,SEP-2013,,Y
CDISCPILOT01,701,1130,2,EUCERIN CREME,UNCODED,,UNCODED,1,VIAL,TID,TOPICAL,WEEK 6,29-MAR-2014,SEP-2013,,Y
CDISCPILOT01,701,1130,2,EUCERIN CREME,UNCODED,,UNCODED,1,VIAL,TID,TOPICAL,WEEK 8,12-APR-2014,SEP-2013,,Y
CDISCPILOT01,701,1130,2,EUCERIN CREME,UNCODED,,UNCODED,1,VIAL,TID,TOPICAL,WEEK 12,16-MAY-2014,SEP-2013,,Y
CDISCPILOT01,701,1130,2,EUCERIN CREME,UNCODED,,UNCODED,1,VIAL,TID,TOPICAL,WEEK 16,07-JUN-2014,SEP-2013,,Y
CDISCPILOT01,701,1130,2,EUCERIN CREME,UNCODED,,UNCODED,1,VIAL,TID,TOPICAL,WEEK 20,02-JUL-2014,SEP-2013,,Y
CDISCPILOT01,701,1130,2,EUCERIN CREME,UNCODED,,UNCODED,1,VIAL,TID,TOPICAL,WEEK 24,02-AUG-2014,SEP-2013,,Y
CDISCPILOT01,701,1130,2,EUCERIN CREME,UNCODED,,UNCODED,1,VIAL,TID,TOPICAL,WEEK 26,16-AUG-2014,SEP-2013,,Y
CDISCPILOT01,701,1130,3,MULTIVITAMINS,UNCODED,PROPHYLAXIS OR NON-THERAPEUTIC USE,UNCODED,4,TABLET,QD,ORAL,SCREENING 1,09-FEB-2014,2002,,Y
CDISCPILOT01,701,1130,3,MULTIVITAMINS,UNCODED,PROPHYLAXIS OR NON-THERAPEUTIC USE,UNCODED,4,TABLET,QD,ORAL,SCREENING 2,13-FEB-2014,2002,,Y
CDISCPILOT01,701,1130,3,MULTIVITAMINS,UNCODED,PROPHYLAXIS OR NON-THERAPEUTIC USE,UNCODED,4,TABLET,QD,ORAL,BASELINE,15-FEB-2014,2002,,Y
CDISCPILOT01,701,1130,3,MULTIVITAMINS,UNCODED,PROPHYLAXIS OR NON-THERAPEUTIC USE,UNCODED,4,TABLET,QD,ORAL,WEEK 2,01-MAR-2014,2002,,Y
CDISCPILOT01,701,1130,3,MULTIVITAMINS,UNCODED,PROPHYLAXIS OR NON-THERAPEUTIC USE,UNCODED,4,TABLET,QD,ORAL,WEEK 4,15-MAR-2014,2002,,Y
CDISCPILOT01,701,1130,3,MULTIVITAMINS,UNCODED,PROPHYLAXIS OR NON-THERAPEUTIC USE,UNCODED,4,TABLET,QD,ORAL,AMBUL ECG REMOVAL,17-MAR-2014,2002,,Y
CDISCPILOT01,701,1130,3,MULTIVITAMINS,UNCODED,PROPHYLAXIS OR NON-THERAPEUTIC USE,UNCODED,4,TABLET,QD,ORAL,WEEK 6,29-MAR-2014,2002,,Y
CDISCPILOT01,701,1130,3,MULTIVITAMINS,UNCODED,PROPHYLAXIS OR NON-THERAPEUTIC USE,UNCODED,4,TABLET,QD,ORAL,WEEK 8,12-APR-2014,2002,,Y
CDISCPILOT01,701,1130,3,MULTIVITAMINS,UNCODED,PROPHYLAXIS OR NON-THERAPEUTIC USE,UNCODED,4,TABLET,QD,ORAL,WEEK 12,16-MAY-2014,2002,,Y
CDISCPILOT01,701,1130,3,MULTIVITAMINS,UNCODED,PROPHYLAXIS OR NON-THERAPEUTIC USE,UNCODED,4,TABLET,QD,ORAL,WEEK 16,07-JUN-2014,2002,,Y
CDISCPILOT01,701,1130,3,MULTIVITAMINS,UNCODED,PROPHYLAXIS OR NON-THERAPEUTIC USE,UNCODED,4,TABLET,QD,ORAL,WEEK 20,02-JUL-2014,2002,,Y
CDISCPILOT01,701,1130,3,MULTIVITAMINS,UNCODED,PROPHYLAXIS OR NON-THERAPEUTIC USE,UNCODED,4,TABLET,QD,ORAL,WEEK 24,02-AUG-2014,2002,,Y
CDISCPILOT01,701,1130,3,MULTIVITAMINS,UNCODED,PROPHYLAXIS OR NON-THERAPEUTIC USE,UNCODED,4,TABLET,QD,ORAL,WEEK 26,16-AUG-2014,2002,,Y
CDISCPILOT01,701,1130,4,POTASSIUM,UNCODED,PROPHYLAXIS OR NON-THERAPEUTIC USE,UNCODED,1,TABLET,QD,ORAL,SCREENING 1,09-FEB-2014,2002,,Y
CDISCPILOT01,701,1130,4,POTASSIUM,UNCODED,PROPHYLAXIS OR NON-THERAPEUTIC USE,UNCODED,1,TABLET,QD,ORAL,SCREENING 2,13-FEB-2014,2002,,Y
CDISCPILOT01,701,1130,4,POTASSIUM,UNCODED,PROPHYLAXIS OR NON-THERAPEUTIC USE,UNCODED,1,TABLET,QD,ORAL,BASELINE,15-FEB-2014,2002,,Y
CDISCPILOT01,701,1130,4,POTASSIUM,UNCODED,PROPHYLAXIS OR NON-THERAPEUTIC USE,UNCODED,1,TABLET,QD,ORAL,WEEK 2,01-MAR-2014,2002,,Y
CDISCPILOT01,701,1130,4,POTASSIUM,UNCODED,PROPHYLAXIS OR NON-THERAPEUTIC USE,UNCODED,1,TABLET,QD,ORAL,WEEK 4,15-MAR-2014,2002,,Y
CDISCPILOT01,701,1130,4,POTASSIUM,UNCODED,PROPHYLAXIS OR NON-THERAPEUTIC USE,UNCODED,1,TABLET,QD,ORAL,AMBUL ECG REMOVAL,17-MAR-2014,2002,,Y
CDISCPILOT01,701,1130,4,POTASSIUM,UNCODED,PROPHYLAXIS OR NON-THERAPEUTIC USE,UNCODED,1,TABLET,QD,ORAL,WEEK 6,29-MAR-2014,2002,,Y
CDISCPILOT01,701,1130,4,POTASSIUM,UNCODED,PROPHYLAXIS OR NON-THERAPEUTIC USE,UNCODED,1,TABLET,QD,ORAL,WEEK 8,12-APR-2014,2002,,Y
CDISCPILOT01,701,1130,4,POTASSIUM,UNCODED,PROPHYLAXIS OR NON-THERAPEUTIC USE,UNCODED,1,TABLET,QD,ORAL,WEEK 12,16-MAY-2014,2002,,Y
CDISCPILOT01,701,1130,4,POTASSIUM,UNCODED,PROPHYLAXIS OR NON-THERAPEUTIC USE,UNCODED,1,TABLET,QD,ORAL,WEEK 16,07-JUN-2014,2002,,Y
CDISCPILOT01,701,1130,4,POTASSIUM,UNCODED,PROPHYLAXIS OR NON-THERAPEUTIC USE,UNCODED,1,TABLET,QD,ORAL,WEEK 20,02-JUL-2014,2002,,Y
CDISCPILOT01,701,1130,4,POTASSIUM,UNCODED,PROPHYLAXIS OR NON-THERAPEUTIC USE,UNCODED,1,TABLET,QD,ORAL,WEEK 24,02-AUG-2014,2002,,Y
CDISCPILOT01,701,1130,4,POTASSIUM,UNCODED,PROPHYLAXIS OR NON-THERAPEUTIC USE,UNCODED,1,TABLET,QD,ORAL,WEEK 26,16-AUG-2014,2002,,Y
CDISCPILOT01,701,1130,5,SULFAMETHOXAZOLE,UNCODED,,UNCODED,1,TABLET,BID,ORAL,WEEK 4,15-MAR-2014,10-MAR-2014,16-MAR-2014,N
CDISCPILOT01,701,1130,5,SULFAMETHOXAZOLE,UNCODED,,UNCODED,1,TABLET,BID,ORAL,AMBUL ECG REMOVAL,17-MAR-2014,10-MAR-2014,16-MAR-2014,N
CDISCPILOT01,701,1130,6,ANTIHISTAMINES FOR SYSTEMIC USE,UNCODED,,UNCODED,2,TABLET,PRN,ORAL,WEEK 12,16-MAY-2014,09-MAY-2014,09-MAY-2014,N
CDISCPILOT01,701,1133,1,MULTIVITAMIN,UNCODED,PROPHYLAXIS OR NON-THERAPEUTIC USE,UNCODED,1,TABLET,QD,ORAL,SCREENING 1,23-OCT-2012,2006,,Y
CDISCPILOT01,701,1133,1,MULTIVITAMIN,UNCODED,PROPHYLAXIS OR NON-THERAPEUTIC USE,UNCODED,1,TABLET,QD,ORAL,SCREENING 2,26-OCT-2012,2006,,Y
CDISCPILOT01,701,1133,1,MULTIVITAMIN,UNCODED,PROPHYLAXIS OR NON-THERAPEUTIC USE,UNCODED,1,TABLET,QD,ORAL,BASELINE,28-OCT-2012,2006,,Y
CDISCPILOT01,701,1133,1,MULTIVITAMIN,UNCODED,PROPHYLAXIS OR NON-THERAPEUTIC USE,UNCODED,1,TABLET,QD,ORAL,WEEK 2,12-NOV-2012,2006,,Y
CDISCPILOT01,701,1133,1,MULTIVITAMIN,UNCODED,PROPHYLAXIS OR NON-THERAPEUTIC USE,UNCODED,1,TABLET,QD,ORAL,WEEK 4,26-NOV-2012,2006,,Y
CDISCPILOT01,701,1133,1,MULTIVITAMIN,UNCODED,PROPHYLAXIS OR NON-THERAPEUTIC USE,UNCODED,1,TABLET,QD,ORAL,AMBUL ECG REMOVAL,28-NOV-2012,2006,,Y
CDISCPILOT01,701,1133,1,MULTIVITAMIN,UNCODED,PROPHYLAXIS OR NON-THERAPEUTIC USE,UNCODED,1,TABLET,QD,ORAL,WEEK 6,11-DEC-2012,2006,,Y
CDISCPILOT01,701,1133,1,MULTIVITAMIN,UNCODED,PROPHYLAXIS OR NON-THERAPEUTIC USE,UNCODED,1,TABLET,QD,ORAL,WEEK 8,24-DEC-2012,2006,,Y
CDISCPILOT01,701,1133,1,MULTIVITAMIN,UNCODED,PROPHYLAXIS OR NON-THERAPEUTIC USE,UNCODED,1,TABLET,QD,ORAL,WEEK 12,22-JAN-2013,2006,,Y
CDISCPILOT01,701,1133,1,MULTIVITAMIN,UNCODED,PROPHYLAXIS OR NON-THERAPEUTIC USE,UNCODED,1,TABLET,QD,ORAL,WEEK 16,18-FEB-2013,2006,,Y
CDISCPILOT01,701,1133,1,MULTIVITAMIN,UNCODED,PROPHYLAXIS OR NON-THERAPEUTIC USE,UNCODED,1,TABLET,QD,ORAL,WEEK 20,18-MAR-2013,2006,,Y
CDISCPILOT01,701,1133,1,MULTIVITAMIN,UNCODED,PROPHYLAXIS OR NON-THERAPEUTIC USE,UNCODED,1,TABLET,QD,ORAL,WEEK 24,18-APR-2013,2006,,Y
CDISCPILOT01,701,1133,1,MULTIVITAMIN,UNCODED,PROPHYLAXIS OR NON-THERAPEUTIC USE,UNCODED,1,TABLET,QD,ORAL,WEEK 26,29-APR-2013,2006,,Y
CDISCPILOT01,701,1133,2,HYDROCORTISONE,HYDROCORTISONE,,"SYSTEMIC HORMONAL PREPARATIONS, EXCL.",1,VIAL,PRN,TOPICAL,WEEK 16,18-FEB-2013,23-JAN-2013,,Y
CDISCPILOT01,701,1133,2,HYDROCORTISONE,HYDROCORTISONE,,"SYSTEMIC HORMONAL PREPARATIONS, EXCL.",1,VIAL,PRN,TOPICAL,WEEK 20,18-MAR-2013,23-JAN-2013,,Y
CDISCPILOT01,701,1133,2,HYDROCORTISONE,HYDROCORTISONE,,"SYSTEMIC HORMONAL PREPARATIONS, EXCL.",1,VIAL,PRN,TOPICAL,WEEK 24,18-APR-2013,23-JAN-2013,,Y
CDISCPILOT01,701,1133,2,HYDROCORTISONE,HYDROCORTISONE,,"SYSTEMIC HORMONAL PREPARATIONS, EXCL.",1,VIAL,PRN,TOPICAL,WEEK 26,29-APR-2013,23-JAN-2013,,Y
CDISCPILOT01,701,1146,1,BECONASE,UNCODED,,UNCODED,2,PUFF,PRN,NASAL,SCREENING 1,07-MAY-2013,2008,,Y
CDISCPILOT01,701,1146,1,BECONASE,UNCODED,,UNCODED,2,PUFF,PRN,NASAL,SCREENING 2,18-MAY-2013,2008,,Y
CDISCPILOT01,701,1146,1,BECONASE,UNCODED,,UNCODED,2,PUFF,PRN,NASAL,BASELINE,20-MAY-2013,2008,,Y
CDISCPILOT01,701,1146,1,BECONASE,UNCODED,,UNCODED,2,PUFF,PRN,NASAL,WEEK 2,03-JUN-2013,2008,,Y
CDISCPILOT01,701,1146,1,BECONASE,UNCODED,,UNCODED,2,PUFF,PRN,NASAL,WEEK 4,16-JUN-2013,2008,,Y
CDISCPILOT01,701,1146,1,BECONASE,UNCODED,,UNCODED,2,PUFF,PRN,NASAL,AMBUL ECG REMOVAL,18-JUN-2013,2008,,Y
CDISCPILOT01,701,1146,1,BECONASE,UNCODED,,UNCODED,2,PUFF,PRN,NASAL,WEEK 6,30-JUN-2013,2008,,Y
CDISCPILOT01,701,1146,1,BECONASE,UNCODED,,UNCODED,2,PUFF,PRN,NASAL,AE FOLLOW-UP,15-JUL-2013,2008,,Y
CDISCPILOT01,701,1146,2,DOCUSATE,UNCODED,,UNCODED,2,TABLET,QD,ORAL,SCREENING 1,07-MAY-2013,2008,,Y
CDISCPILOT01,701,1146,2,DOCUSATE,UNCODED,,UNCODED,2,TABLET,QD,ORAL,SCREENING 2,18-MAY-2013,2008,,Y
CDISCPILOT01,701,1146,2,DOCUSATE,UNCODED,,UNCODED,2,TABLET,QD,ORAL,BASELINE,20-MAY-2013,2008,,Y
CDISCPILOT01,701,1146,2,DOCUSATE,UNCODED,,UNCODED,2,TABLET,QD,ORAL,WEEK 2,03-JUN-2013,2008,,Y
CDISCPILOT01,701,1146,2,DOCUSATE,UNCODED,,UNCODED,2,TABLET,QD,ORAL,WEEK 4,16-JUN-2013,2008,,Y
CDISCPILOT01,701,1146,2,DOCUSATE,UNCODED,,UNCODED,2,TABLET,QD,ORAL,AMBUL ECG REMOVAL,18-JUN-2013,2008,,Y
CDISCPILOT01,701,1146,2,DOCUSATE,UNCODED,,UNCODED,2,TABLET,QD,ORAL,WEEK 6,30-JUN-2013,2008,,Y
CDISCPILOT01,701,1146,2,DOCUSATE,UNCODED,,UNCODED,2,TABLET,QD,ORAL,AE FOLLOW-UP,15-JUL-2013,2008,,Y
CDISCPILOT01,701,1146,3,MINERALS NOS,UNCODED,,UNCODED,15,TABLET,PRN,ORAL,SCREENING 1,07-MAY-2013,2012,,Y
CDISCPILOT01,701,1146,3,MINERALS NOS,UNCODED,,UNCODED,15,TABLET,PRN,ORAL,SCREENING 2,18-MAY-2013,2012,,Y
CDISCPILOT01,701,1146,3,MINERALS NOS,UNCODED,,UNCODED,15,TABLET,PRN,ORAL,BASELINE,20-MAY-2013,2012,,Y
CDISCPILOT01,701,1146,3,MINERALS NOS,UNCODED,,UNCODED,15,TABLET,PRN,ORAL,WEEK 2,03-JUN-2013,2012,,Y
CDISCPILOT01,701,1146,3,MINERALS NOS,UNCODED,,UNCODED,15,TABLET,PRN,ORAL,WEEK 4,16-JUN-2013,2012,,Y
CDISCPILOT01,701,1146,3,MINERALS NOS,UNCODED,,UNCODED,15,TABLET,PRN,ORAL,AMBUL ECG REMOVAL,18-JUN-2013,2012,,Y
CDISCPILOT01,701,1146,3,MINERALS NOS,UNCODED,,UNCODED,15,TABLET,PRN,ORAL,WEEK 6,30-JUN-2013,2012,,Y
CDISCPILOT01,701,1146,3,MINERALS NOS,UNCODED,,UNCODED,15,TABLET,PRN,ORAL,AE FOLLOW-UP,15-JUL-2013,2012,,Y
CDISCPILOT01,701,1146,4,MOTRIN,UNCODED,,UNCODED,1,TABLET,PRN,ORAL,SCREENING 1,07-MAY-2013,1966,,Y
CDISCPILOT01,701,1146,4,MOTRIN,UNCODED,,UNCODED,1,TABLET,PRN,ORAL,SCREENING 2,18-MAY-2013,1966,,Y
CDISCPILOT01,701,1146,4,MOTRIN,UNCODED,,UNCODED,1,TABLET,PRN,ORAL,BASELINE,20-MAY-2013,1966,,Y
CDISCPILOT01,701,1146,4,MOTRIN,UNCODED,,UNCODED,1,TABLET,PRN,ORAL,WEEK 2,03-JUN-2013,1966,,Y
CDISCPILOT01,701,1146,4,MOTRIN,UNCODED,,UNCODED,1,TABLET,PRN,ORAL,WEEK 4,16-JUN-2013,1966,,Y
CDISCPILOT01,701,1146,4,MOTRIN,UNCODED,,UNCODED,1,TABLET,PRN,ORAL,AMBUL ECG REMOVAL,18-JUN-2013,1966,,Y
CDISCPILOT01,701,1146,4,MOTRIN,UNCODED,,UNCODED,1,TABLET,PRN,ORAL,WEEK 6,30-JUN-2013,1966,,Y
CDISCPILOT01,701,1146,4,MOTRIN,UNCODED,,UNCODED,1,TABLET,PRN,ORAL,AE FOLLOW-UP,15-JUL-2013,1966,,Y
CDISCPILOT01,701,1146,5,MULTIVITAMIN,UNCODED,PROPHYLAXIS OR NON-THERAPEUTIC USE,UNCODED,1,TABLET,QD,ORAL,SCREENING 1,07-MAY-2013,2006,,Y
CDISCPILOT01,701,1146,5,MULTIVITAMIN,UNCODED,PROPHYLAXIS OR NON-THERAPEUTIC USE,UNCODED,1,TABLET,QD,ORAL,SCREENING 2,18-MAY-2013,2006,,Y
CDISCPILOT01,701,1146,5,MULTIVITAMIN,UNCODED,PROPHYLAXIS OR NON-THERAPEUTIC USE,UNCODED,1,TABLET,QD,ORAL,BASELINE,20-MAY-2013,2006,,Y
CDISCPILOT01,701,1146,5,MULTIVITAMIN,UNCODED,PROPHYLAXIS OR NON-THERAPEUTIC USE,UNCODED,1,TABLET,QD,ORAL,WEEK 2,03-JUN-2013,2006,,Y
CDISCPILOT01,701,1146,5,MULTIVITAMIN,UNCODED,PROPHYLAXIS OR NON-THERAPEUTIC USE,UNCODED,1,TABLET,QD,ORAL,WEEK 4,16-JUN-2013,2006,,Y
CDISCPILOT01,701,1146,5,MULTIVITAMIN,UNCODED,PROPHYLAXIS OR NON-THERAPEUTIC USE,UNCODED,1,TABLET,QD,ORAL,AMBUL ECG REMOVAL,18-JUN-2013,2006,,Y
CDISCPILOT01,701,1146,5,MULTIVITAMIN,UNCODED,PROPHYLAXIS OR NON-THERAPEUTIC USE,UNCODED,1,TABLET,QD,ORAL,WEEK 6,30-JUN-2013,2006,,Y
CDISCPILOT01,701,1146,5,MULTIVITAMIN,UNCODED,PROPHYLAXIS OR NON-THERAPEUTIC USE,UNCODED,1,TABLET,QD,ORAL,AE FOLLOW-UP,15-JUL-2013,2006,,Y
CDISCPILOT01,701,1146,6,PREMARIN,ESTROGENS CONJUGATED,PROPHYLAXIS OR NON-THERAPEUTIC USE,GENITO URINARY SYSTEM AND SEX HORMONES,0.625,mg,QD,ORAL,SCREENING 1,07-MAY-2013,1987,,Y
CDISCPILOT01,701,1146,6,PREMARIN,ESTROGENS CONJUGATED,PROPHYLAXIS OR NON-THERAPEUTIC USE,GENITO URINARY SYSTEM AND SEX HORMONES,0.625,mg,QD,ORAL,SCREENING 2,18-MAY-2013,1987,,Y
CDISCPILOT01,701,1146,6,PREMARIN,ESTROGENS CONJUGATED,PROPHYLAXIS OR NON-THERAPEUTIC USE,GENITO URINARY SYSTEM AND SEX HORMONES,0.625,mg,QD,ORAL,BASELINE,20-MAY-2013,1987,,Y
CDISCPILOT01,701,1146,6,PREMARIN,ESTROGENS CONJUGATED,PROPHYLAXIS OR NON-THERAPEUTIC USE,GENITO URINARY SYSTEM AND SEX HORMONES,0.625,mg,QD,ORAL,WEEK 2,03-JUN-2013,1987,,Y
CDISCPILOT01,701,1146,6,PREMARIN,ESTROGENS CONJUGATED,PROPHYLAXIS OR NON-THERAPEUTIC USE,GENITO URINARY SYSTEM AND SEX HORMONES,0.625,mg,QD,ORAL,WEEK 4,16-JUN-2013,1987,,Y
CDISCPILOT01,701,1146,6,PREMARIN,ESTROGENS CONJUGATED,PROPHYLAXIS OR NON-THERAPEUTIC USE,GENITO URINARY SYSTEM AND SEX HORMONES,0.625,mg,QD,ORAL,AMBUL ECG REMOVAL,18-JUN-2013,1987,,Y
CDISCPILOT01,701,1146,6,PREMARIN,ESTROGENS CONJUGATED,PROPHYLAXIS OR NON-THERAPEUTIC USE,GENITO URINARY SYSTEM AND SEX HORMONES,0.625,mg,QD,ORAL,WEEK 6,30-JUN-2013,1987,,Y
CDISCPILOT01,701,1146,6,PREMARIN,ESTROGENS CONJUGATED,PROPHYLAXIS OR NON-THERAPEUTIC USE,GENITO URINARY SYSTEM AND SEX HORMONES,0.625,mg,QD,ORAL,AE FOLLOW-UP,15-JUL-2013,1987,,Y
CDISCPILOT01,701,1146,7,PROVERA,UNCODED,PROPHYLAXIS OR NON-THERAPEUTIC USE,UNCODED,2.5,ug,QD,ORAL,SCREENING 1,07-MAY-2013,1987,,Y
CDISCPILOT01,701,1146,7,PROVERA,UNCODED,PROPHYLAXIS OR NON-THERAPEUTIC USE,UNCODED,2.5,ug,QD,ORAL,SCREENING 2,18-MAY-2013,1987,,Y
CDISCPILOT01,701,1146,7,PROVERA,UNCODED,PROPHYLAXIS OR NON-THERAPEUTIC USE,UNCODED,2.5,ug,QD,ORAL,BASELINE,20-MAY-2013,1987,,Y
CDISCPILOT01,701,1146,7,PROVERA,UNCODED,PROPHYLAXIS OR NON-THERAPEUTIC USE,UNCODED,2.5,ug,QD,ORAL,WEEK 2,03-JUN-2013,1987,,Y
CDISCPILOT01,701,1146,7,PROVERA,UNCODED,PROPHYLAXIS OR NON-THERAPEUTIC USE,UNCODED,2.5,ug,QD,ORAL,WEEK 4,16-JUN-2013,1987,,Y
CDISCPILOT01,701,1146,7,PROVERA,UNCODED,PROPHYLAXIS OR NON-THERAPEUTIC USE,UNCODED,2.5,ug,QD,ORAL,AMBUL ECG REMOVAL,18-JUN-2013,1987,,Y
CDISCPILOT01,701,1146,7,PROVERA,UNCODED,PROPHYLAXIS OR NON-THERAPEUTIC USE,UNCODED,2.5,ug,QD,ORAL,WEEK 6,30-JUN-2013,1987,,Y
CDISCPILOT01,701,1146,7,PROVERA,UNCODED,PROPHYLAXIS OR NON-THERAPEUTIC USE,UNCODED,2.5,ug,QD,ORAL,AE FOLLOW-UP,15-JUL-2013,1987,,Y
CDISCPILOT01,701,1146,8,ADVIL,UNCODED,,UNCODED,2,TABLET,TID,ORAL,WEEK 2,03-JUN-2013,21-MAY-2013,22-MAY-2013,N
CDISCPILOT01,701,1146,9,"HYDROCORTISONE, TOPICAL",UNCODED,,UNCODED,1,VIAL,PRN,TOPICAL,WEEK 4,16-JUN-2013,12-JUN-2013,,Y
CDISCPILOT01,701,1146,9,"HYDROCORTISONE, TOPICAL",UNCODED,,UNCODED,1,VIAL,PRN,TOPICAL,AMBUL ECG REMOVAL,18-JUN-2013,12-JUN-2013,,Y
CDISCPILOT01,701,1146,9,"HYDROCORTISONE, TOPICAL",UNCODED,,UNCODED,1,VIAL,PRN,TOPICAL,WEEK 6,30-JUN-2013,12-JUN-2013,,Y
CDISCPILOT01,701,1146,9,"HYDROCORTISONE, TOPICAL",UNCODED,,UNCODED,1,VIAL,PRN,TOPICAL,AE FOLLOW-UP,15-JUL-2013,12-JUN-2013,,Y
CDISCPILOT01,701,1148,1,TUMS,UNCODED,,UNCODED,2,TABLET,PRN,ORAL,SCREENING 1,14-AUG-2013,2011,,Y
CDISCPILOT01,701,1148,1,TUMS,UNCODED,,UNCODED,2,TABLET,PRN,ORAL,SCREENING 2,21-AUG-2013,2011,,Y
CDISCPILOT01,701,1148,1,TUMS,UNCODED,,UNCODED,2,TABLET,PRN,ORAL,BASELINE,23-AUG-2013,2011,,Y
CDISCPILOT01,701,1148,1,TUMS,UNCODED,,UNCODED,2,TABLET,PRN,ORAL,WEEK 2,05-SEP-2013,2011,,Y
CDISCPILOT01,701,1148,1,TUMS,UNCODED,,UNCODED,2,TABLET,PRN,ORAL,WEEK 4,19-SEP-2013,2011,,Y
CDISCPILOT01,701,1148,1,TUMS,UNCODED,,UNCODED,2,TABLET,PRN,ORAL,AMBUL ECG REMOVAL,21-SEP-2013,2011,,Y
CDISCPILOT01,701,1148,1,TUMS,UNCODED,,UNCODED,2,TABLET,PRN,ORAL,WEEK 6,03-OCT-2013,2011,,Y
CDISCPILOT01,701,1148,1,TUMS,UNCODED,,UNCODED,2,TABLET,PRN,ORAL,WEEK 8,18-OCT-2013,2011,,Y
CDISCPILOT01,701,1148,1,TUMS,UNCODED,,UNCODED,2,TABLET,PRN,ORAL,WEEK 12,17-NOV-2013,2011,,Y
CDISCPILOT01,701,1148,1,TUMS,UNCODED,,UNCODED,2,TABLET,PRN,ORAL,WEEK 16,13-DEC-2013,2011,,Y
CDISCPILOT01,701,1148,1,TUMS,UNCODED,,UNCODED,2,TABLET,PRN,ORAL,WEEK 20,10-JAN-2014,2011,,Y
CDISCPILOT01,701,1148,1,TUMS,UNCODED,,UNCODED,2,TABLET,PRN,ORAL,WEEK 24,08-FEB-2014,2011,,Y
CDISCPILOT01,701,1148,1,TUMS,UNCODED,,UNCODED,2,TABLET,PRN,ORAL,WEEK 26,20-FEB-2014,2011,,Y
CDISCPILOT01,701,1148,2,TYLENOL,UNCODED,,UNCODED,1000,mg,PRN,ORAL,SCREENING 1,14-AUG-2013,2006,,Y
CDISCPILOT01,701,1148,2,TYLENOL,UNCODED,,UNCODED,1000,mg,PRN,ORAL,SCREENING 2,21-AUG-2013,2006,,Y
CDISCPILOT01,701,1148,2,TYLENOL,UNCODED,,UNCODED,1000,mg,PRN,ORAL,BASELINE,23-AUG-2013,2006,,Y
CDISCPILOT01,701,1148,2,TYLENOL,UNCODED,,UNCODED,1000,mg,PRN,ORAL,WEEK 2,05-SEP-2013,2006,,Y
CDISCPILOT01,701,1148,2,TYLENOL,UNCODED,,UNCODED,1000,mg,PRN,ORAL,WEEK 4,19-SEP-2013,2006,,Y
CDISCPILOT01,701,1148,2,TYLENOL,UNCODED,,UNCODED,1000,mg,PRN,ORAL,AMBUL ECG REMOVAL,21-SEP-2013,2006,,Y
CDISCPILOT01,701,1148,2,TYLENOL,UNCODED,,UNCODED,1000,mg,PRN,ORAL,WEEK 6,03-OCT-2013,2006,,Y
CDISCPILOT01,701,1148,2,TYLENOL,UNCODED,,UNCODED,1000,mg,PRN,ORAL,WEEK 8,18-OCT-2013,2006,,Y
CDISCPILOT01,701,1148,2,TYLENOL,UNCODED,,UNCODED,1000,mg,PRN,ORAL,WEEK 12,17-NOV-2013,2006,,Y
CDISCPILOT01,701,1148,2,TYLENOL,UNCODED,,UNCODED,1000,mg,PRN,ORAL,WEEK 16,13-DEC-2013,2006,,Y
CDISCPILOT01,701,1148,2,TYLENOL,UNCODED,,UNCODED,1000,mg,PRN,ORAL,WEEK 20,10-JAN-2014,2006,,Y
CDISCPILOT01,701,1148,2,TYLENOL,UNCODED,,UNCODED,1000,mg,PRN,ORAL,WEEK 24,08-FEB-2014,2006,,Y
CDISCPILOT01,701,1148,2,TYLENOL,UNCODED,,UNCODED,1000,mg,PRN,ORAL,WEEK 26,20-FEB-2014,2006,,Y
CDISCPILOT01,701,1148,3,SULFAMETHOXAZOLE,UNCODED,,UNCODED,1,TABLET,BID,ORAL,WEEK 12,17-NOV-2013,28-OCT-2013,16-NOV-2013,N
CDISCPILOT01,701,1148,4,HYDROCORTISONE,HYDROCORTISONE,,"SYSTEMIC HORMONAL PREPARATIONS, EXCL.",1,VIAL,PRN,TOPICAL,WEEK 16,13-DEC-2013,18-NOV-2013,,Y
CDISCPILOT01,701,1148,4,HYDROCORTISONE,HYDROCORTISONE,,"SYSTEMIC HORMONAL PREPARATIONS, EXCL.",1,VIAL,PRN,TOPICAL,WEEK 20,10-JAN-2014,18-NOV-2013,,Y
CDISCPILOT01,701,1148,4,HYDROCORTISONE,HYDROCORTISONE,,"SYSTEMIC HORMONAL PREPARATIONS, EXCL.",1,VIAL,PRN,TOPICAL,WEEK 24,08-FEB-2014,18-NOV-2013,,Y
CDISCPILOT01,701,1148,4,HYDROCORTISONE,HYDROCORTISONE,,"SYSTEMIC HORMONAL PREPARATIONS, EXCL.",1,VIAL,PRN,TOPICAL,WEEK 26,20-FEB-2014,18-NOV-2013,,Y
CDISCPILOT01,701,1148,5,HYDROCODONE W/APAP,UNCODED,,UNCODED,500,mg,Q4H,ORAL,WEEK 20,10-JAN-2014,16-DEC-2013,17-DEC-2013,N
CDISCPILOT01,701,1148,6,NAPROXEN,UNCODED,,UNCODED,375,mg,BID,ORAL,WEEK 20,10-JAN-2014,16-DEC-2013,17-DEC-2013,N
CDISCPILOT01,701,1148,7,CIMETIDINE,UNCODED,,UNCODED,400,mg,BID,ORAL,WEEK 24,08-FEB-2014,25-JAN-2014,08-FEB-2014,N
CDISCPILOT01,701,1148,7,CIMETIDINE,UNCODED,,UNCODED,400,mg,BID,ORAL,WEEK 26,20-FEB-2014,25-JAN-2014,08-FEB-2014,N
CDISCPILOT01,701,1148,8,FLUOROPLEX,UNCODED,,UNCODED,1,VIAL,BID,TOPICAL,WEEK 26,20-FEB-2014,12-FEB-2014,,Y
CDISCPILOT01,701,1153,1,TYLENOL,UNCODED,,UNCODED,650,mg,PRN,ORAL,SCREENING 1,06-SEP-2013,2011,,Y
CDISCPILOT01,701,1153,1,TYLENOL,UNCODED,,UNCODED,650,mg,PRN,ORAL,SCREENING 2,18-SEP-2013,2011,,Y
CDISCPILOT01,701,1153,1,TYLENOL,UNCODED,,UNCODED,650,mg,PRN,ORAL,BASELINE,23-SEP-2013,2011,,Y
CDISCPILOT01,701,1153,1,TYLENOL,UNCODED,,UNCODED,650,mg,PRN,ORAL,WEEK 2,08-OCT-2013,2011,,Y
CDISCPILOT01,701,1153,1,TYLENOL,UNCODED,,UNCODED,650,mg,PRN,ORAL,WEEK 4,19-OCT-2013,2011,,Y
CDISCPILOT01,701,1153,1,TYLENOL,UNCODED,,UNCODED,650,mg,PRN,ORAL,AMBUL ECG REMOVAL,28-OCT-2013,2011,,Y
CDISCPILOT01,701,1153,1,TYLENOL,UNCODED,,UNCODED,650,mg,PRN,ORAL,WEEK 6,04-NOV-2013,2011,,Y
CDISCPILOT01,701,1153,1,TYLENOL,UNCODED,,UNCODED,650,mg,PRN,ORAL,WEEK 8,18-NOV-2013,2011,,Y
CDISCPILOT01,701,1153,1,TYLENOL,UNCODED,,UNCODED,650,mg,PRN,ORAL,WEEK 12,16-DEC-2013,2011,,Y
CDISCPILOT01,701,1153,1,TYLENOL,UNCODED,,UNCODED,650,mg,PRN,ORAL,WEEK 16,08-JAN-2014,2011,,Y
CDISCPILOT01,701,1153,1,TYLENOL,UNCODED,,UNCODED,650,mg,PRN,ORAL,WEEK 20,11-FEB-2014,2011,,Y
CDISCPILOT01,701,1153,1,TYLENOL,UNCODED,,UNCODED,650,mg,PRN,ORAL,WEEK 24,11-MAR-2014,2011,,Y
CDISCPILOT01,701,1153,1,TYLENOL,UNCODED,,UNCODED,650,mg,PRN,ORAL,WEEK 26,01-APR-2014,2011,,Y
CDISCPILOT01,701,1180,1,CENTRUM,UNCODED,PROPHYLAXIS OR NON-THERAPEUTIC USE,UNCODED,1,TABLET,QD,ORAL,SCREENING 1,28-JAN-2013,2006,,Y
CDISCPILOT01,701,1180,1,CENTRUM,UNCODED,PROPHYLAXIS OR NON-THERAPEUTIC USE,UNCODED,1,TABLET,QD,ORAL,SCREENING 2,10-FEB-2013,2006,,Y
CDISCPILOT01,701,1180,1,CENTRUM,UNCODED,PROPHYLAXIS OR NON-THERAPEUTIC USE,UNCODED,1,TABLET,QD,ORAL,BASELINE,12-FEB-2013,2006,,Y
CDISCPILOT01,701,1180,1,CENTRUM,UNCODED,PROPHYLAXIS OR NON-THERAPEUTIC USE,UNCODED,1,TABLET,QD,ORAL,WEEK 2,25-FEB-2013,2006,,Y
CDISCPILOT01,701,1180,1,CENTRUM,UNCODED,PROPHYLAXIS OR NON-THERAPEUTIC USE,UNCODED,1,TABLET,QD,ORAL,WEEK 4,11-MAR-2013,2006,,Y
CDISCPILOT01,701,1180,1,CENTRUM,UNCODED,PROPHYLAXIS OR NON-THERAPEUTIC USE,UNCODED,1,TABLET,QD,ORAL,AMBUL ECG REMOVAL,13-MAR-2013,2006,,Y
CDISCPILOT01,701,1180,1,CENTRUM,UNCODED,PROPHYLAXIS OR NON-THERAPEUTIC USE,UNCODED,1,TABLET,QD,ORAL,WEEK 6,23-MAR-2013,2006,,Y
CDISCPILOT01,701,1180,1,CENTRUM,UNCODED,PROPHYLAXIS OR NON-THERAPEUTIC USE,UNCODED,1,TABLET,QD,ORAL,AE FOLLOW-UP,07-APR-2013,2006,,Y
CDISCPILOT01,701,1180,10,NEOSPORIN /USA/,UNCODED,,UNCODED,1,VIAL,PRN,TOPICAL,AE FOLLOW-UP,07-APR-2013,24-MAR-2013,24-MAR-2013,N
CDISCPILOT01,701,1180,2,ASPIRIN,ACETYLSALICYLIC ACID,,NERVOUS SYSTEM,2,TABLET,QD,ORAL,WEEK 4,11-MAR-2013,03-MAR-2013,09-MAR-2013,N
CDISCPILOT01,701,1180,3,SUDAFED,UNCODED,,UNCODED,2,TABLET,QD,ORAL,WEEK 4,11-MAR-2013,06-MAR-2013,07-MAR-2013,N
CDISCPILOT01,701,1180,4,ALOES,UNCODED,PROPHYLAXIS OR NON-THERAPEUTIC USE,UNCODED,1,VIAL,QD,TOPICAL,WEEK 6,23-MAR-2013,19-MAR-2013,19-MAR-2013,N
CDISCPILOT01,701,1180,5,WESTCORT,UNCODED,PROPHYLAXIS OR NON-THERAPEUTIC USE,UNCODED,1,VIAL,BID,TOPICAL,WEEK 6,23-MAR-2013,19-MAR-2013,21-MAR-2013,N
CDISCPILOT01,701,1180,6,DHEA,UNCODED,PROPHYLAXIS OR NON-THERAPEUTIC USE,UNCODED,25,mg,QD,ORAL,AE FOLLOW-UP,07-APR-2013,27-MAR-2013,30-MAR-2013,N
CDISCPILOT01,701,1180,7,HISMANAL,UNCODED,,UNCODED,10,mg,QD,ORAL,AE FOLLOW-UP,07-APR-2013,25-MAR-2013,,Y
CDISCPILOT01,701,1180,8,MEDROL DOSEPAK,UNCODED,,UNCODED,4,mg,PRN,ORAL,AE FOLLOW-UP,07-APR-2013,30-MAR-2013,,Y
CDISCPILOT01,701,1180,9,MELATONIN,UNCODED,,UNCODED,2,mg,QD,ORAL,AE FOLLOW-UP,07-APR-2013,27-MAR-2013,30-MAR-2013,N
CDISCPILOT01,701,1181,1,CALCIUM MAGNESIUM,UNCODED,PROPHYLAXIS OR NON-THERAPEUTIC USE,UNCODED,1,TABLET,QD,ORAL,SCREENING 1,26-NOV-2013,1985,,Y
CDISCPILOT01,701,1181,1,CALCIUM MAGNESIUM,UNCODED,PROPHYLAXIS OR NON-THERAPEUTIC USE,UNCODED,1,TABLET,QD,ORAL,SCREENING 2,03-DEC-2013,1985,,Y
CDISCPILOT01,701,1181,1,CALCIUM MAGNESIUM,UNCODED,PROPHYLAXIS OR NON-THERAPEUTIC USE,UNCODED,1,TABLET,QD,ORAL,BASELINE,05-DEC-2013,1985,,Y
CDISCPILOT01,701,1181,1,CALCIUM MAGNESIUM,UNCODED,PROPHYLAXIS OR NON-THERAPEUTIC USE,UNCODED,1,TABLET,QD,ORAL,WEEK 2,12-DEC-2013,1985,,Y
CDISCPILOT01,701,1181,1,CALCIUM MAGNESIUM,UNCODED,PROPHYLAXIS OR NON-THERAPEUTIC USE,UNCODED,1,TABLET,QD,ORAL,AE FOLLOW-UP,20-DEC-2013,1985,,Y
CDISCPILOT01,701,1181,1,CALCIUM MAGNESIUM,UNCODED,PROPHYLAXIS OR NON-THERAPEUTIC USE,UNCODED,1,TABLET,QD,ORAL,RETRIEVAL,23-MAY-2014,1985,,Y
CDISCPILOT01,701,1181,2,POTASSIUM,UNCODED,PROPHYLAXIS OR NON-THERAPEUTIC USE,UNCODED,1,TABLET,QD,ORAL,SCREENING 1,26-NOV-2013,1985,,Y
CDISCPILOT01,701,1181,2,POTASSIUM,UNCODED,PROPHYLAXIS OR NON-THERAPEUTIC USE,UNCODED,1,TABLET,QD,ORAL,SCREENING 2,03-DEC-2013,1985,,Y
CDISCPILOT01,701,1181,2,POTASSIUM,UNCODED,PROPHYLAXIS OR NON-THERAPEUTIC USE,UNCODED,1,TABLET,QD,ORAL,BASELINE,05-DEC-2013,1985,,Y
CDISCPILOT01,701,1181,2,POTASSIUM,UNCODED,PROPHYLAXIS OR NON-THERAPEUTIC USE,UNCODED,1,TABLET,QD,ORAL,WEEK 2,12-DEC-2013,1985,,Y
CDISCPILOT01,701,1181,2,POTASSIUM,UNCODED,PROPHYLAXIS OR NON-THERAPEUTIC USE,UNCODED,1,TABLET,QD,ORAL,AE FOLLOW-UP,20-DEC-2013,1985,,Y
CDISCPILOT01,701,1181,2,POTASSIUM,UNCODED,PROPHYLAXIS OR NON-THERAPEUTIC USE,UNCODED,1,TABLET,QD,ORAL,RETRIEVAL,23-MAY-2014,1985,,Y
CDISCPILOT01,701,1181,3,TYLENOL,UNCODED,,UNCODED,500,mg,PRN,ORAL,SCREENING 1,26-NOV-2013,2005,,Y
CDISCPILOT01,701,1181,3,TYLENOL,UNCODED,,UNCODED,500,mg,PRN,ORAL,SCREENING 2,03-DEC-2013,2005,,Y
CDISCPILOT01,701,1181,3,TYLENOL,UNCODED,,UNCODED,500,mg,PRN,ORAL,BASELINE,05-DEC-2013,2005,,Y
CDISCPILOT01,701,1181,3,TYLENOL,UNCODED,,UNCODED,500,mg,PRN,ORAL,WEEK 2,12-DEC-2013,2005,,Y
CDISCPILOT01,701,1181,3,TYLENOL,UNCODED,,UNCODED,500,mg,PRN,ORAL,AE FOLLOW-UP,20-DEC-2013,2005,,Y
CDISCPILOT01,701,1181,3,TYLENOL,UNCODED,,UNCODED,500,mg,PRN,ORAL,RETRIEVAL,23-MAY-2014,2005,,Y
CDISCPILOT01,701,1181,4,VITAMIN C,UNCODED,PROPHYLAXIS OR NON-THERAPEUTIC USE,UNCODED,1,TABLET,QD,ORAL,SCREENING 1,26-NOV-2013,1985,,Y
CDISCPILOT01,701,1181,4,VITAMIN C,UNCODED,PROPHYLAXIS OR NON-THERAPEUTIC USE,UNCODED,1,TABLET,QD,ORAL,SCREENING 2,03-DEC-2013,1985,,Y
CDISCPILOT01,701,1181,4,VITAMIN C,UNCODED,PROPHYLAXIS OR NON-THERAPEUTIC USE,UNCODED,1,TABLET,QD,ORAL,BASELINE,05-DEC-2013,1985,,Y
CDISCPILOT01,701,1181,4,VITAMIN C,UNCODED,PROPHYLAXIS OR NON-THERAPEUTIC USE,UNCODED,1,TABLET,QD,ORAL,WEEK 2,12-DEC-2013,1985,,Y
CDISCPILOT01,701,1181,4,VITAMIN C,UNCODED,PROPHYLAXIS OR NON-THERAPEUTIC USE,UNCODED,1,TABLET,QD,ORAL,AE FOLLOW-UP,20-DEC-2013,1985,,Y
CDISCPILOT01,701,1181,4,VITAMIN C,UNCODED,PROPHYLAXIS OR NON-THERAPEUTIC USE,UNCODED,1,TABLET,QD,ORAL,RETRIEVAL,23-MAY-2014,1985,,Y
CDISCPILOT01,701,1181,5,VITAMIN E,UNCODED,PROPHYLAXIS OR NON-THERAPEUTIC USE,UNCODED,1,TABLET,QD,ORAL,SCREENING 1,26-NOV-2013,04-JUN-2012,,Y
CDISCPILOT01,701,1181,5,VITAMIN E,UNCODED,PROPHYLAXIS OR NON-THERAPEUTIC USE,UNCODED,1,TABLET,QD,ORAL,SCREENING 2,03-DEC-2013,04-JUN-2012,,Y
CDISCPILOT01,701,1181,5,VITAMIN E,UNCODED,PROPHYLAXIS OR NON-THERAPEUTIC USE,UNCODED,1,TABLET,QD,ORAL,BASELINE,05-DEC-2013,04-JUN-2012,,Y
CDISCPILOT01,701,1181,5,VITAMIN E,UNCODED,PROPHYLAXIS OR NON-THERAPEUTIC USE,UNCODED,1,TABLET,QD,ORAL,WEEK 2,12-DEC-2013,04-JUN-2012,,Y
CDISCPILOT01,701,1181,5,VITAMIN E,UNCODED,PROPHYLAXIS OR NON-THERAPEUTIC USE,UNCODED,1,TABLET,QD,ORAL,AE FOLLOW-UP,20-DEC-2013,04-JUN-2012,,Y
CDISCPILOT01,701,1181,5,VITAMIN E,UNCODED,PROPHYLAXIS OR NON-THERAPEUTIC USE,UNCODED,1,TABLET,QD,ORAL,RETRIEVAL,23-MAY-2014,04-JUN-2012,,Y
CDISCPILOT01,701,1181,6,MOTRIN,UNCODED,,UNCODED,200,mg,ONCE,ORAL,WEEK 2,12-DEC-2013,09-DEC-2013,09-DEC-2013,N
CDISCPILOT01,701,1188,1,ASPIRIN,ACETYLSALICYLIC ACID,PROPHYLAXIS OR NON-THERAPEUTIC USE,NERVOUS SYSTEM,1,TABLET,QD,ORAL,SCREENING 1,03-FEB-2013,2006,,Y
CDISCPILOT01,701,1188,1,ASPIRIN,ACETYLSALICYLIC ACID,PROPHYLAXIS OR NON-THERAPEUTIC USE,NERVOUS SYSTEM,1,TABLET,QD,ORAL,SCREENING 2,10-FEB-2013,2006,,Y
CDISCPILOT01,701,1188,1,ASPIRIN,ACETYLSALICYLIC ACID,PROPHYLAXIS OR NON-THERAPEUTIC USE,NERVOUS SYSTEM,1,TABLET,QD,ORAL,BASELINE,15-FEB-2013,2006,,Y
CDISCPILOT01,701,1188,1,ASPIRIN,ACETYLSALICYLIC ACID,PROPHYLAXIS OR NON-THERAPEUTIC USE,NERVOUS SYSTEM,1,TABLET,QD,ORAL,WEEK 2,02-MAR-2013,2006,,Y
CDISCPILOT01,701,1188,1,ASPIRIN,ACETYLSALICYLIC ACID,PROPHYLAXIS OR NON-THERAPEUTIC USE,NERVOUS SYSTEM,1,TABLET,QD,ORAL,WEEK 4,16-MAR-2013,2006,,Y
CDISCPILOT01,701,1188,1,ASPIRIN,ACETYLSALICYLIC ACID,PROPHYLAXIS OR NON-THERAPEUTIC USE,NERVOUS SYSTEM,1,TABLET,QD,ORAL,AMBUL ECG REMOVAL,18-MAR-2013,2006,,Y
CDISCPILOT01,701,1188,1,ASPIRIN,ACETYLSALICYLIC ACID,PROPHYLAXIS OR NON-THERAPEUTIC USE,NERVOUS SYSTEM,1,TABLET,QD,ORAL,WEEK 6,25-MAR-2013,2006,,Y
CDISCPILOT01,701,1188,1,ASPIRIN,ACETYLSALICYLIC ACID,PROPHYLAXIS OR NON-THERAPEUTIC USE,NERVOUS SYSTEM,1,TABLET,QD,ORAL,AE FOLLOW-UP,01-JUN-2013,2006,,Y
CDISCPILOT01,701,1188,1,ASPIRIN,ACETYLSALICYLIC ACID,PROPHYLAXIS OR NON-THERAPEUTIC USE,NERVOUS SYSTEM,1,TABLET,QD,ORAL,RETRIEVAL,04-AUG-2013,2006,,Y
CDISCPILOT01,701,1188,2,MULTIVITAMINS,UNCODED,PROPHYLAXIS OR NON-THERAPEUTIC USE,UNCODED,1,TABLET,QD,ORAL,SCREENING 1,03-FEB-2013,2002,,Y
CDISCPILOT01,701,1188,2,MULTIVITAMINS,UNCODED,PROPHYLAXIS OR NON-THERAPEUTIC USE,UNCODED,1,TABLET,QD,ORAL,SCREENING 2,10-FEB-2013,2002,,Y
CDISCPILOT01,701,1188,2,MULTIVITAMINS,UNCODED,PROPHYLAXIS OR NON-THERAPEUTIC USE,UNCODED,1,TABLET,QD,ORAL,BASELINE,15-FEB-2013,2002,,Y
CDISCPILOT01,701,1188,2,MULTIVITAMINS,UNCODED,PROPHYLAXIS OR NON-THERAPEUTIC USE,UNCODED,1,TABLET,QD,ORAL,WEEK 2,02-MAR-2013,2002,,Y
CDISCPILOT01,701,1188,2,MULTIVITAMINS,UNCODED,PROPHYLAXIS OR NON-THERAPEUTIC USE,UNCODED,1,TABLET,QD,ORAL,WEEK 4,16-MAR-2013,2002,,Y
CDISCPILOT01,701,1188,2,MULTIVITAMINS,UNCODED,PROPHYLAXIS OR NON-THERAPEUTIC USE,UNCODED,1,TABLET,QD,ORAL,AMBUL ECG REMOVAL,18-MAR-2013,2002,,Y
CDISCPILOT01,701,1188,2,MULTIVITAMINS,UNCODED,PROPHYLAXIS OR NON-THERAPEUTIC USE,UNCODED,1,TABLET,QD,ORAL,WEEK 6,25-MAR-2013,2002,,Y
CDISCPILOT01,701,1188,2,MULTIVITAMINS,UNCODED,PROPHYLAXIS OR NON-THERAPEUTIC USE,UNCODED,1,TABLET,QD,ORAL,AE FOLLOW-UP,01-JUN-2013,2002,,Y
CDISCPILOT01,701,1188,2,MULTIVITAMINS,UNCODED,PROPHYLAXIS OR NON-THERAPEUTIC USE,UNCODED,1,TABLET,QD,ORAL,RETRIEVAL,04-AUG-2013,2002,,Y
CDISCPILOT01,701,1192,1,EXCEDRIN,UNCODED,,UNCODED,2,TABLET,PRN,ORAL,SCREENING 1,08-JUL-2012,1999,,Y
CDISCPILOT01,701,1192,1,EXCEDRIN,UNCODED,,UNCODED,2,TABLET,PRN,ORAL,SCREENING 2,20-JUL-2012,1999,,Y
CDISCPILOT01,701,1192,1,EXCEDRIN,UNCODED,,UNCODED,2,TABLET,PRN,ORAL,BASELINE,22-JUL-2012,1999,,Y
CDISCPILOT01,701,1192,1,EXCEDRIN,UNCODED,,UNCODED,2,TABLET,PRN,ORAL,WEEK 2,07-AUG-2012,1999,,Y
CDISCPILOT01,701,1192,1,EXCEDRIN,UNCODED,,UNCODED,2,TABLET,PRN,ORAL,WEEK 4,21-AUG-2012,1999,,Y
CDISCPILOT01,701,1192,1,EXCEDRIN,UNCODED,,UNCODED,2,TABLET,PRN,ORAL,AMBUL ECG REMOVAL,23-AUG-2012,1999,,Y
CDISCPILOT01,701,1192,1,EXCEDRIN,UNCODED,,UNCODED,2,TABLET,PRN,ORAL,WEEK 6,04-SEP-2012,1999,,Y
CDISCPILOT01,701,1192,1,EXCEDRIN,UNCODED,,UNCODED,2,TABLET,PRN,ORAL,WEEK 8,23-SEP-2012,1999,,Y
CDISCPILOT01,701,1192,1,EXCEDRIN,UNCODED,,UNCODED,2,TABLET,PRN,ORAL,WEEK 12,14-OCT-2012,1999,,Y
CDISCPILOT01,701,1192,1,EXCEDRIN,UNCODED,,UNCODED,2,TABLET,PRN,ORAL,WEEK 16,15-NOV-2012,1999,,Y
CDISCPILOT01,701,1192,1,EXCEDRIN,UNCODED,,UNCODED,2,TABLET,PRN,ORAL,WEEK 20,13-DEC-2012,1999,,Y
CDISCPILOT01,701,1192,1,EXCEDRIN,UNCODED,,UNCODED,2,TABLET,PRN,ORAL,WEEK 24,11-JAN-2013,1999,,Y
CDISCPILOT01,701,1192,1,EXCEDRIN,UNCODED,,UNCODED,2,TABLET,PRN,ORAL,WEEK 26,20-JAN-2013,1999,,Y
CDISCPILOT01,701,1192,2,MULTIVITAMINS,UNCODED,PROPHYLAXIS OR NON-THERAPEUTIC USE,UNCODED,2,TABLET,TID,ORAL,SCREENING 1,08-JUL-2012,19-MAY-2011,,Y
CDISCPILOT01,701,1192,2,MULTIVITAMINS,UNCODED,PROPHYLAXIS OR NON-THERAPEUTIC USE,UNCODED,2,TABLET,TID,ORAL,SCREENING 2,20-JUL-2012,19-MAY-2011,,Y
CDISCPILOT01,701,1192,2,MULTIVITAMINS,UNCODED,PROPHYLAXIS OR NON-THERAPEUTIC USE,UNCODED,2,TABLET,TID,ORAL,BASELINE,22-JUL-2012,19-MAY-2011,,Y
CDISCPILOT01,701,1192,2,MULTIVITAMINS,UNCODED,PROPHYLAXIS OR NON-THERAPEUTIC USE,UNCODED,2,TABLET,TID,ORAL,WEEK 2,07-AUG-2012,19-MAY-2011,,Y
CDISCPILOT01,701,1192,2,MULTIVITAMINS,UNCODED,PROPHYLAXIS OR NON-THERAPEUTIC USE,UNCODED,2,TABLET,TID,ORAL,WEEK 4,21-AUG-2012,19-MAY-2011,,Y
CDISCPILOT01,701,1192,2,MULTIVITAMINS,UNCODED,PROPHYLAXIS OR NON-THERAPEUTIC USE,UNCODED,2,TABLET,TID,ORAL,AMBUL ECG REMOVAL,23-AUG-2012,19-MAY-2011,,Y
CDISCPILOT01,701,1192,2,MULTIVITAMINS,UNCODED,PROPHYLAXIS OR NON-THERAPEUTIC USE,UNCODED,2,TABLET,TID,ORAL,WEEK 6,04-SEP-2012,19-MAY-2011,,Y
CDISCPILOT01,701,1192,2,MULTIVITAMINS,UNCODED,PROPHYLAXIS OR NON-THERAPEUTIC USE,UNCODED,2,TABLET,TID,ORAL,WEEK 8,23-SEP-2012,19-MAY-2011,,Y
CDISCPILOT01,701,1192,2,MULTIVITAMINS,UNCODED,PROPHYLAXIS OR NON-THERAPEUTIC USE,UNCODED,2,TABLET,TID,ORAL,WEEK 12,14-OCT-2012,19-MAY-2011,,Y
CDISCPILOT01,701,1192,2,MULTIVITAMINS,UNCODED,PROPHYLAXIS OR NON-THERAPEUTIC USE,UNCODED,2,TABLET,TID,ORAL,WEEK 16,15-NOV-2012,19-MAY-2011,,Y
CDISCPILOT01,701,1192,2,MULTIVITAMINS,UNCODED,PROPHYLAXIS OR NON-THERAPEUTIC USE,UNCODED,2,TABLET,TID,ORAL,WEEK 20,13-DEC-2012,19-MAY-2011,,Y
CDISCPILOT01,701,1192,2,MULTIVITAMINS,UNCODED,PROPHYLAXIS OR NON-THERAPEUTIC USE,UNCODED,2,TABLET,TID,ORAL,WEEK 24,11-JAN-2013,19-MAY-2011,,Y
CDISCPILOT01,701,1192,2,MULTIVITAMINS,UNCODED,PROPHYLAXIS OR NON-THERAPEUTIC USE,UNCODED,2,TABLET,TID,ORAL,WEEK 26,20-JAN-2013,19-MAY-2011,,Y
CDISCPILOT01,701,1192,3,ROCEPHIN,UNCODED,,UNCODED,,,,,WEEK 8,23-SEP-2012,07-SEP-2012,08-SEP-2012,N
CDISCPILOT01,701,1192,4,BIAXIN,UNCODED,,UNCODED,500,mg,BID,ORAL,WEEK 8,23-SEP-2012,07-SEP-2012,23-SEP-2012,N
CDISCPILOT01,701,1192,4,BIAXIN,UNCODED,,UNCODED,500,mg,BID,ORAL,WEEK 12,14-OCT-2012,07-SEP-2012,23-SEP-2012,N
CDISCPILOT01,701,1192,5,PROVENTIL,SALBUTAMOL SULFATE,,RESPIRATORY SYSTEM,4,mg,BID,ORAL,WEEK 12,14-OCT-2012,24-SEP-2012,06-OCT-2012,N
CDISCPILOT01,701,1192,6,ROBITUSSIN-DM,UNCODED,,UNCODED,1,tsp,PRN,ORAL,WEEK 8,23-SEP-2012,08-SEP-2012,06-OCT-2012,N
CDISCPILOT01,701,1192,6,ROBITUSSIN-DM,UNCODED,,UNCODED,1,tsp,PRN,ORAL,WEEK 12,14-OCT-2012,08-SEP-2012,06-OCT-2012,N
CDISCPILOT01,701,1192,7,HYDROCORTISONE,HYDROCORTISONE,,"SYSTEMIC HORMONAL PREPARATIONS, EXCL.",1,VIAL,PRN,TOPICAL,WEEK 20,13-DEC-2012,08-DEC-2012,,Y
CDISCPILOT01,701,1192,7,HYDROCORTISONE,HYDROCORTISONE,,"SYSTEMIC HORMONAL PREPARATIONS, EXCL.",1,VIAL,PRN,TOPICAL,WEEK 24,11-JAN-2013,08-DEC-2012,,Y
CDISCPILOT01,701,1192,7,HYDROCORTISONE,HYDROCORTISONE,,"SYSTEMIC HORMONAL PREPARATIONS, EXCL.",1,VIAL,PRN,TOPICAL,WEEK 26,20-JAN-2013,08-DEC-2012,,Y
CDISCPILOT01,701,1192,8,NEOSPORIN /USA/,UNCODED,,UNCODED,1,VIAL,PRN,TOPICAL,WEEK 20,13-DEC-2012,09-DEC-2012,,Y
CDISCPILOT01,701,1192,8,NEOSPORIN /USA/,UNCODED,,UNCODED,1,VIAL,PRN,TOPICAL,WEEK 24,11-JAN-2013,09-DEC-2012,,Y
CDISCPILOT01,701,1192,8,NEOSPORIN /USA/,UNCODED,,UNCODED,1,VIAL,PRN,TOPICAL,WEEK 26,20-JAN-2013,09-DEC-2012,,Y
CDISCPILOT01,701,1203,1,TIMOPTIC,UNCODED,,UNCODED,1,gtt,BID,OPHTHALMIC,SCREENING 1,25-JAN-2013,1986,,Y
CDISCPILOT01,701,1203,1,TIMOPTIC,UNCODED,,UNCODED,1,gtt,BID,OPHTHALMIC,SCREENING 2,01-FEB-2013,1986,,Y
CDISCPILOT01,701,1203,1,TIMOPTIC,UNCODED,,UNCODED,1,gtt,BID,OPHTHALMIC,BASELINE,02-FEB-2013,1986,,Y
CDISCPILOT01,701,1203,1,TIMOPTIC,UNCODED,,UNCODED,1,gtt,BID,OPHTHALMIC,WEEK 2,23-FEB-2013,1986,,Y
CDISCPILOT01,701,1203,1,TIMOPTIC,UNCODED,,UNCODED,1,gtt,BID,OPHTHALMIC,WEEK 4,02-MAR-2013,1986,,Y
CDISCPILOT01,701,1203,1,TIMOPTIC,UNCODED,,UNCODED,1,gtt,BID,OPHTHALMIC,AMBUL ECG REMOVAL,04-MAR-2013,1986,,Y
CDISCPILOT01,701,1203,1,TIMOPTIC,UNCODED,,UNCODED,1,gtt,BID,OPHTHALMIC,WEEK 6,16-MAR-2013,1986,,Y
CDISCPILOT01,701,1203,1,TIMOPTIC,UNCODED,,UNCODED,1,gtt,BID,OPHTHALMIC,WEEK 8,30-MAR-2013,1986,,Y
CDISCPILOT01,701,1203,1,TIMOPTIC,UNCODED,,UNCODED,1,gtt,BID,OPHTHALMIC,WEEK 12,09-MAY-2013,1986,,Y
CDISCPILOT01,701,1203,1,TIMOPTIC,UNCODED,,UNCODED,1,gtt,BID,OPHTHALMIC,WEEK 16,25-MAY-2013,1986,,Y
CDISCPILOT01,701,1203,1,TIMOPTIC,UNCODED,,UNCODED,1,gtt,BID,OPHTHALMIC,WEEK 20,22-JUN-2013,1986,,Y
CDISCPILOT01,701,1203,1,TIMOPTIC,UNCODED,,UNCODED,1,gtt,BID,OPHTHALMIC,WEEK 24,22-JUL-2013,1986,,Y
CDISCPILOT01,701,1203,1,TIMOPTIC,UNCODED,,UNCODED,1,gtt,BID,OPHTHALMIC,WEEK 26,03-AUG-2013,1986,,Y
CDISCPILOT01,701,1203,2,TRUSOPT,UNCODED,,UNCODED,1,gtt,BID,OPHTHALMIC,SCREENING 1,25-JAN-2013,1986,,Y
CDISCPILOT01,701,1203,2,TRUSOPT,UNCODED,,UNCODED,1,gtt,BID,OPHTHALMIC,SCREENING 2,01-FEB-2013,1986,,Y
CDISCPILOT01,701,1203,2,TRUSOPT,UNCODED,,UNCODED,1,gtt,BID,OPHTHALMIC,BASELINE,02-FEB-2013,1986,,Y
CDISCPILOT01,701,1203,2,TRUSOPT,UNCODED,,UNCODED,1,gtt,BID,OPHTHALMIC,WEEK 2,23-FEB-2013,1986,,Y
CDISCPILOT01,701,1203,2,TRUSOPT,UNCODED,,UNCODED,1,gtt,BID,OPHTHALMIC,WEEK 4,02-MAR-2013,1986,,Y
CDISCPILOT01,701,1203,2,TRUSOPT,UNCODED,,UNCODED,1,gtt,BID,OPHTHALMIC,AMBUL ECG REMOVAL,04-MAR-2013,1986,,Y
CDISCPILOT01,701,1203,2,TRUSOPT,UNCODED,,UNCODED,1,gtt,BID,OPHTHALMIC,WEEK 6,16-MAR-2013,1986,,Y
CDISCPILOT01,701,1203,2,TRUSOPT,UNCODED,,UNCODED,1,gtt,BID,OPHTHALMIC,WEEK 8,30-MAR-2013,1986,,Y
CDISCPILOT01,701,1203,2,TRUSOPT,UNCODED,,UNCODED,1,gtt,BID,OPHTHALMIC,WEEK 12,09-MAY-2013,1986,,Y
CDISCPILOT01,701,1203,2,TRUSOPT,UNCODED,,UNCODED,1,gtt,BID,OPHTHALMIC,WEEK 16,25-MAY-2013,1986,,Y
CDISCPILOT01,701,1203,2,TRUSOPT,UNCODED,,UNCODED,1,gtt,BID,OPHTHALMIC,WEEK 20,22-JUN-2013,1986,,Y
CDISCPILOT01,701,1203,2,TRUSOPT,UNCODED,,UNCODED,1,gtt,BID,OPHTHALMIC,WEEK 24,22-JUL-2013,1986,,Y
CDISCPILOT01,701,1203,2,TRUSOPT,UNCODED,,UNCODED,1,gtt,BID,OPHTHALMIC,WEEK 26,03-AUG-2013,1986,,Y
CDISCPILOT01,701,1203,3,ALPHAGAN,UNCODED,,UNCODED,1,gtt,BID,OPHTHALMIC,SCREENING 2,01-FEB-2013,31-JAN-2013,,Y
CDISCPILOT01,701,1203,3,ALPHAGAN,UNCODED,,UNCODED,1,gtt,BID,OPHTHALMIC,BASELINE,02-FEB-2013,31-JAN-2013,,Y
CDISCPILOT01,701,1203,3,ALPHAGAN,UNCODED,,UNCODED,1,gtt,BID,OPHTHALMIC,WEEK 2,23-FEB-2013,31-JAN-2013,,Y
CDISCPILOT01,701,1203,3,ALPHAGAN,UNCODED,,UNCODED,1,gtt,BID,OPHTHALMIC,WEEK 4,02-MAR-2013,31-JAN-2013,,Y
CDISCPILOT01,701,1203,3,ALPHAGAN,UNCODED,,UNCODED,1,gtt,BID,OPHTHALMIC,AMBUL ECG REMOVAL,04-MAR-2013,31-JAN-2013,,Y
CDISCPILOT01,701,1203,3,ALPHAGAN,UNCODED,,UNCODED,1,gtt,BID,OPHTHALMIC,WEEK 6,16-MAR-2013,31-JAN-2013,,Y
CDISCPILOT01,701,1203,3,ALPHAGAN,UNCODED,,UNCODED,1,gtt,BID,OPHTHALMIC,WEEK 8,30-MAR-2013,31-JAN-2013,,Y
CDISCPILOT01,701,1203,3,ALPHAGAN,UNCODED,,UNCODED,1,gtt,BID,OPHTHALMIC,WEEK 12,09-MAY-2013,31-JAN-2013,,Y
CDISCPILOT01,701,1203,3,ALPHAGAN,UNCODED,,UNCODED,1,gtt,BID,OPHTHALMIC,WEEK 16,25-MAY-2013,31-JAN-2013,,Y
CDISCPILOT01,701,1203,3,ALPHAGAN,UNCODED,,UNCODED,1,gtt,BID,OPHTHALMIC,WEEK 20,22-JUN-2013,31-JAN-2013,,Y
CDISCPILOT01,701,1203,3,ALPHAGAN,UNCODED,,UNCODED,1,gtt,BID,OPHTHALMIC,WEEK 24,22-JUL-2013,31-JAN-2013,,Y
CDISCPILOT01,701,1203,3,ALPHAGAN,UNCODED,,UNCODED,1,gtt,BID,OPHTHALMIC,WEEK 26,03-AUG-2013,31-JAN-2013,,Y
CDISCPILOT01,701,1203,4,PILOSTAT,UNCODED,,UNCODED,1,gtt,BID,OPHTHALMIC,SCREENING 2,01-FEB-2013,31-JAN-2013,,Y
CDISCPILOT01,701,1203,4,PILOSTAT,UNCODED,,UNCODED,1,gtt,BID,OPHTHALMIC,BASELINE,02-FEB-2013,31-JAN-2013,,Y
CDISCPILOT01,701,1203,4,PILOSTAT,UNCODED,,UNCODED,1,gtt,BID,OPHTHALMIC,WEEK 2,23-FEB-2013,31-JAN-2013,,Y
CDISCPILOT01,701,1203,4,PILOSTAT,UNCODED,,UNCODED,1,gtt,BID,OPHTHALMIC,WEEK 4,02-MAR-2013,31-JAN-2013,,Y
CDISCPILOT01,701,1203,4,PILOSTAT,UNCODED,,UNCODED,1,gtt,BID,OPHTHALMIC,AMBUL ECG REMOVAL,04-MAR-2013,31-JAN-2013,,Y
CDISCPILOT01,701,1203,4,PILOSTAT,UNCODED,,UNCODED,1,gtt,BID,OPHTHALMIC,WEEK 6,16-MAR-2013,31-JAN-2013,,Y
CDISCPILOT01,701,1203,4,PILOSTAT,UNCODED,,UNCODED,1,gtt,BID,OPHTHALMIC,WEEK 8,30-MAR-2013,31-JAN-2013,,Y
CDISCPILOT01,701,1203,4,PILOSTAT,UNCODED,,UNCODED,1,gtt,BID,OPHTHALMIC,WEEK 12,09-MAY-2013,31-JAN-2013,,Y
CDISCPILOT01,701,1203,4,PILOSTAT,UNCODED,,UNCODED,1,gtt,BID,OPHTHALMIC,WEEK 16,25-MAY-2013,31-JAN-2013,,Y
CDISCPILOT01,701,1203,4,PILOSTAT,UNCODED,,UNCODED,1,gtt,BID,OPHTHALMIC,WEEK 20,22-JUN-2013,31-JAN-2013,,Y
CDISCPILOT01,701,1203,4,PILOSTAT,UNCODED,,UNCODED,1,gtt,BID,OPHTHALMIC,WEEK 24,22-JUL-2013,31-JAN-2013,,Y
CDISCPILOT01,701,1203,4,PILOSTAT,UNCODED,,UNCODED,1,gtt,BID,OPHTHALMIC,WEEK 26,03-AUG-2013,31-JAN-2013,,Y
CDISCPILOT01,701,1203,5,MOTRIN,UNCODED,,UNCODED,1,TABLET,PRN,ORAL,WEEK 24,22-JUL-2013,04-JUL-2013,,Y
CDISCPILOT01,701,1203,5,MOTRIN,UNCODED,,UNCODED,1,TABLET,PRN,ORAL,WEEK 26,03-AUG-2013,04-JUL-2013,,Y
CDISCPILOT01,701,1203,6,TYLENOL,UNCODED,,UNCODED,1,TABLET,PRN,ORAL,WEEK 24,22-JUL-2013,04-JUL-2013,,Y
CDISCPILOT01,701,1203,6,TYLENOL,UNCODED,,UNCODED,1,TABLET,PRN,ORAL,WEEK 26,03-AUG-2013,04-JUL-2013,,Y
CDISCPILOT01,701,1211,1,DEMEROL,UNCODED,,UNCODED,50,mg,ONCE,INTRAVENOUS,WEEK 2,28-NOV-2012,21-NOV-2012,21-NOV-2012,N
CDISCPILOT01,701,1211,2,TYLENOL W/CODEINE NO. 3,UNCODED,,UNCODED,2,TABLET,ONCE,ORAL,WEEK 2,28-NOV-2012,21-NOV-2012,21-NOV-2012,N
CDISCPILOT01,701,1211,3,HYDROCORTISONE,HYDROCORTISONE,,"SYSTEMIC HORMONAL PREPARATIONS, EXCL.",1,VIAL,PRN,TOPICAL,WEEK 4,11-DEC-2012,08-DEC-2012,,Y
CDISCPILOT01,701,1211,3,HYDROCORTISONE,HYDROCORTISONE,,"SYSTEMIC HORMONAL PREPARATIONS, EXCL.",1,VIAL,PRN,TOPICAL,AMBUL ECG REMOVAL,13-DEC-2012,08-DEC-2012,,Y
CDISCPILOT01,701,1211,3,HYDROCORTISONE,HYDROCORTISONE,,"SYSTEMIC HORMONAL PREPARATIONS, EXCL.",1,VIAL,PRN,TOPICAL,WEEK 6,25-DEC-2012,08-DEC-2012,,Y
CDISCPILOT01,701,1211,3,HYDROCORTISONE,HYDROCORTISONE,,"SYSTEMIC HORMONAL PREPARATIONS, EXCL.",1,VIAL,PRN,TOPICAL,WEEK 8,08-JAN-2013,08-DEC-2012,,Y
CDISCPILOT01,701,1211,3,HYDROCORTISONE,HYDROCORTISONE,,"SYSTEMIC HORMONAL PREPARATIONS, EXCL.",1,VIAL,PRN,TOPICAL,WEEK 12,14-JAN-2013,08-DEC-2012,,Y
CDISCPILOT01,701,1211,4,LOMOTIL,UNCODED,,UNCODED,2.5,mg,QD,ORAL,WEEK 8,08-JAN-2013,04-JAN-2013,04-JAN-2013,N
CDISCPILOT01,701,1211,5,MYLANTA,UNCODED,,UNCODED,1,tsp,BID,ORAL,WEEK 8,08-JAN-2013,05-JAN-2013,,Y
CDISCPILOT01,701,1211,5,MYLANTA,UNCODED,,UNCODED,1,tsp,BID,ORAL,WEEK 12,14-JAN-2013,05-JAN-2013,,Y
CDISCPILOT01,701,1234,1,NIACIN,UNCODED,PROPHYLAXIS OR NON-THERAPEUTIC USE,UNCODED,1000,mg,BID,ORAL,SCREENING 1,20-MAR-2013,2001,,Y
CDISCPILOT01,701,1234,1,NIACIN,UNCODED,PROPHYLAXIS OR NON-THERAPEUTIC USE,UNCODED,1000,mg,BID,ORAL,SCREENING 2,28-MAR-2013,2001,,Y
CDISCPILOT01,701,1234,1,NIACIN,UNCODED,PROPHYLAXIS OR NON-THERAPEUTIC USE,UNCODED,1000,mg,BID,ORAL,BASELINE,30-MAR-2013,2001,,Y
CDISCPILOT01,701,1234,1,NIACIN,UNCODED,PROPHYLAXIS OR NON-THERAPEUTIC USE,UNCODED,1000,mg,BID,ORAL,WEEK 2,21-APR-2013,2001,,Y
CDISCPILOT01,701,1234,1,NIACIN,UNCODED,PROPHYLAXIS OR NON-THERAPEUTIC USE,UNCODED,1000,mg,BID,ORAL,WEEK 4,28-APR-2013,2001,,Y
CDISCPILOT01,701,1234,1,NIACIN,UNCODED,PROPHYLAXIS OR NON-THERAPEUTIC USE,UNCODED,1000,mg,BID,ORAL,AMBUL ECG REMOVAL,30-APR-2013,2001,,Y
CDISCPILOT01,701,1234,1,NIACIN,UNCODED,PROPHYLAXIS OR NON-THERAPEUTIC USE,UNCODED,1000,mg,BID,ORAL,WEEK 6,08-MAY-2013,2001,,Y
CDISCPILOT01,701,1234,1,NIACIN,UNCODED,PROPHYLAXIS OR NON-THERAPEUTIC USE,UNCODED,1000,mg,BID,ORAL,WEEK 8,26-MAY-2013,2001,,Y
CDISCPILOT01,701,1234,1,NIACIN,UNCODED,PROPHYLAXIS OR NON-THERAPEUTIC USE,UNCODED,1000,mg,BID,ORAL,WEEK 12,07-JUL-2013,2001,,Y
CDISCPILOT01,701,1234,1,NIACIN,UNCODED,PROPHYLAXIS OR NON-THERAPEUTIC USE,UNCODED,1000,mg,BID,ORAL,WEEK 16,27-JUL-2013,2001,,Y
CDISCPILOT01,701,1234,1,NIACIN,UNCODED,PROPHYLAXIS OR NON-THERAPEUTIC USE,UNCODED,1000,mg,BID,ORAL,WEEK 20,18-AUG-2013,2001,,Y
CDISCPILOT01,701,1234,1,NIACIN,UNCODED,PROPHYLAXIS OR NON-THERAPEUTIC USE,UNCODED,1000,mg,BID,ORAL,WEEK 24,10-SEP-2013,2001,,Y
CDISCPILOT01,701,1234,1,NIACIN,UNCODED,PROPHYLAXIS OR NON-THERAPEUTIC USE,UNCODED,1000,mg,BID,ORAL,WEEK 26,22-SEP-2013,2001,,Y
CDISCPILOT01,701,1239,1,ADVIL,UNCODED,,UNCODED,2,TABLET,PRN,ORAL,SCREENING 1,28-DEC-2013,2007,,Y
CDISCPILOT01,701,1239,1,ADVIL,UNCODED,,UNCODED,2,TABLET,PRN,ORAL,SCREENING 2,09-JAN-2014,2007,,Y
CDISCPILOT01,701,1239,1,ADVIL,UNCODED,,UNCODED,2,TABLET,PRN,ORAL,BASELINE,11-JAN-2014,2007,,Y
CDISCPILOT01,701,1239,1,ADVIL,UNCODED,,UNCODED,2,TABLET,PRN,ORAL,WEEK 2,25-JAN-2014,2007,,Y
CDISCPILOT01,701,1239,1,ADVIL,UNCODED,,UNCODED,2,TABLET,PRN,ORAL,WEEK 4,08-FEB-2014,2007,,Y
CDISCPILOT01,701,1239,1,ADVIL,UNCODED,,UNCODED,2,TABLET,PRN,ORAL,AMBUL ECG REMOVAL,10-FEB-2014,2007,,Y
CDISCPILOT01,701,1239,1,ADVIL,UNCODED,,UNCODED,2,TABLET,PRN,ORAL,WEEK 6,19-FEB-2014,2007,,Y
CDISCPILOT01,701,1239,1,ADVIL,UNCODED,,UNCODED,2,TABLET,PRN,ORAL,WEEK 8,06-MAR-2014,2007,,Y
CDISCPILOT01,701,1239,1,ADVIL,UNCODED,,UNCODED,2,TABLET,PRN,ORAL,WEEK 12,02-APR-2014,2007,,Y
CDISCPILOT01,701,1239,1,ADVIL,UNCODED,,UNCODED,2,TABLET,PRN,ORAL,WEEK 16,02-MAY-2014,2007,,Y
CDISCPILOT01,701,1239,1,ADVIL,UNCODED,,UNCODED,2,TABLET,PRN,ORAL,WEEK 20,28-MAY-2014,2007,,Y
CDISCPILOT01,701,1239,1,ADVIL,UNCODED,,UNCODED,2,TABLET,PRN,ORAL,WEEK 24,27-JUN-2014,2007,,Y
CDISCPILOT01,701,1239,1,ADVIL,UNCODED,,UNCODED,2,TABLET,PRN,ORAL,WEEK 26,11-JUL-2014,2007,,Y
CDISCPILOT01,701,1239,2,MOTRIN,UNCODED,,UNCODED,2,TABLET,PRN,ORAL,SCREENING 1,28-DEC-2013,2007,,Y
CDISCPILOT01,701,1239,2,MOTRIN,UNCODED,,UNCODED,2,TABLET,PRN,ORAL,SCREENING 2,09-JAN-2014,2007,,Y
CDISCPILOT01,701,1239,2,MOTRIN,UNCODED,,UNCODED,2,TABLET,PRN,ORAL,BASELINE,11-JAN-2014,2007,,Y
CDISCPILOT01,701,1239,2,MOTRIN,UNCODED,,UNCODED,2,TABLET,PRN,ORAL,WEEK 2,25-JAN-2014,2007,,Y
CDISCPILOT01,701,1239,2,MOTRIN,UNCODED,,UNCODED,2,TABLET,PRN,ORAL,WEEK 4,08-FEB-2014,2007,,Y
CDISCPILOT01,701,1239,2,MOTRIN,UNCODED,,UNCODED,2,TABLET,PRN,ORAL,AMBUL ECG REMOVAL,10-FEB-2014,2007,,Y
CDISCPILOT01,701,1239,2,MOTRIN,UNCODED,,UNCODED,2,TABLET,PRN,ORAL,WEEK 6,19-FEB-2014,2007,,Y
CDISCPILOT01,701,1239,2,MOTRIN,UNCODED,,UNCODED,2,TABLET,PRN,ORAL,WEEK 8,06-MAR-2014,2007,,Y
CDISCPILOT01,701,1239,2,MOTRIN,UNCODED,,UNCODED,2,TABLET,PRN,ORAL,WEEK 12,02-APR-2014,2007,,Y
CDISCPILOT01,701,1239,2,MOTRIN,UNCODED,,UNCODED,2,TABLET,PRN,ORAL,WEEK 16,02-MAY-2014,2007,,Y
CDISCPILOT01,701,1239,2,MOTRIN,UNCODED,,UNCODED,2,TABLET,PRN,ORAL,WEEK 20,28-MAY-2014,2007,,Y
CDISCPILOT01,701,1239,2,MOTRIN,UNCODED,,UNCODED,2,TABLET,PRN,ORAL,WEEK 24,27-JUN-2014,2007,,Y
CDISCPILOT01,701,1239,2,MOTRIN,UNCODED,,UNCODED,2,TABLET,PRN,ORAL,WEEK 26,11-JUL-2014,2007,,Y
CDISCPILOT01,701,1239,3,DIABETA,UNCODED,,UNCODED,2.5,mg,QD,ORAL,WEEK 4,08-FEB-2014,04-FEB-2014,,Y
CDISCPILOT01,701,1239,3,DIABETA,UNCODED,,UNCODED,2.5,mg,QD,ORAL,AMBUL ECG REMOVAL,10-FEB-2014,04-FEB-2014,,Y
CDISCPILOT01,701,1239,3,DIABETA,UNCODED,,UNCODED,2.5,mg,QD,ORAL,WEEK 6,19-FEB-2014,04-FEB-2014,,Y
CDISCPILOT01,701,1239,3,DIABETA,UNCODED,,UNCODED,2.5,mg,QD,ORAL,WEEK 8,06-MAR-2014,04-FEB-2014,,Y
CDISCPILOT01,701,1239,3,DIABETA,UNCODED,,UNCODED,2.5,mg,QD,ORAL,WEEK 12,02-APR-2014,04-FEB-2014,,Y
CDISCPILOT01,701,1239,3,DIABETA,UNCODED,,UNCODED,2.5,mg,QD,ORAL,WEEK 16,02-MAY-2014,04-FEB-2014,,Y
CDISCPILOT01,701,1239,3,DIABETA,UNCODED,,UNCODED,2.5,mg,QD,ORAL,WEEK 20,28-MAY-2014,04-FEB-2014,,Y
CDISCPILOT01,701,1239,3,DIABETA,UNCODED,,UNCODED,2.5,mg,QD,ORAL,WEEK 24,27-JUN-2014,04-FEB-2014,,Y
CDISCPILOT01,701,1239,3,DIABETA,UNCODED,,UNCODED,2.5,mg,QD,ORAL,WEEK 26,11-JUL-2014,04-FEB-2014,,Y
CDISCPILOT01,701,1275,1,TYLENOL,UNCODED,,UNCODED,325,mg,PRN,ORAL,SCREENING 1,25-JAN-2014,1997,,Y
CDISCPILOT01,701,1275,1,TYLENOL,UNCODED,,UNCODED,325,mg,PRN,ORAL,SCREENING 2,05-FEB-2014,1997,,Y
CDISCPILOT01,701,1275,1,TYLENOL,UNCODED,,UNCODED,325,mg,PRN,ORAL,BASELINE,07-FEB-2014,1997,,Y
CDISCPILOT01,701,1275,1,TYLENOL,UNCODED,,UNCODED,325,mg,PRN,ORAL,WEEK 2,22-FEB-2014,1997,,Y
CDISCPILOT01,701,1275,1,TYLENOL,UNCODED,,UNCODED,325,mg,PRN,ORAL,WEEK 4,07-MAR-2014,1997,,Y
CDISCPILOT01,701,1275,1,TYLENOL,UNCODED,,UNCODED,325,mg,PRN,ORAL,AMBUL ECG REMOVAL,08-MAR-2014,1997,,Y
CDISCPILOT01,701,1275,1,TYLENOL,UNCODED,,UNCODED,325,mg,PRN,ORAL,WEEK 6,22-MAR-2014,1997,,Y
CDISCPILOT01,701,1275,1,TYLENOL,UNCODED,,UNCODED,325,mg,PRN,ORAL,WEEK 8,05-APR-2014,1997,,Y
CDISCPILOT01,701,1275,1,TYLENOL,UNCODED,,UNCODED,325,mg,PRN,ORAL,WEEK 12,03-MAY-2014,1997,,Y
CDISCPILOT01,701,1275,1,TYLENOL,UNCODED,,UNCODED,325,mg,PRN,ORAL,WEEK 16,14-JUN-2014,1997,,Y
CDISCPILOT01,701,1275,2,VITAMIN C,UNCODED,,UNCODED,500,mg,QD,ORAL,WEEK 6,22-MAR-2014,12-MAR-2014,,Y
CDISCPILOT01,701,1275,2,VITAMIN C,UNCODED,,UNCODED,500,mg,QD,ORAL,WEEK 8,05-APR-2014,12-MAR-2014,,Y
CDISCPILOT01,701,1275,2,VITAMIN C,UNCODED,,UNCODED,500,mg,QD,ORAL,WEEK 12,03-MAY-2014,12-MAR-2014,,Y
CDISCPILOT01,701,1275,2,VITAMIN C,UNCODED,,UNCODED,500,mg,QD,ORAL,WEEK 16,14-JUN-2014,12-MAR-2014,,Y
CDISCPILOT01,701,1287,1,MULTIVITAMIN,UNCODED,PROPHYLAXIS OR NON-THERAPEUTIC USE,UNCODED,1,TABLET,QD,ORAL,SCREENING 1,17-JAN-2014,OCT-2001,,Y
CDISCPILOT01,701,1287,1,MULTIVITAMIN,UNCODED,PROPHYLAXIS OR NON-THERAPEUTIC USE,UNCODED,1,TABLET,QD,ORAL,SCREENING 2,23-JAN-2014,OCT-2001,,Y
CDISCPILOT01,701,1287,1,MULTIVITAMIN,UNCODED,PROPHYLAXIS OR NON-THERAPEUTIC USE,UNCODED,1,TABLET,QD,ORAL,BASELINE,25-JAN-2014,OCT-2001,,Y
CDISCPILOT01,701,1287,1,MULTIVITAMIN,UNCODED,PROPHYLAXIS OR NON-THERAPEUTIC USE,UNCODED,1,TABLET,QD,ORAL,WEEK 2,11-FEB-2014,OCT-2001,,Y
CDISCPILOT01,701,1287,1,MULTIVITAMIN,UNCODED,PROPHYLAXIS OR NON-THERAPEUTIC USE,UNCODED,1,TABLET,QD,ORAL,WEEK 4,20-FEB-2014,OCT-2001,,Y
CDISCPILOT01,701,1287,1,MULTIVITAMIN,UNCODED,PROPHYLAXIS OR NON-THERAPEUTIC USE,UNCODED,1,TABLET,QD,ORAL,AMBUL ECG REMOVAL,22-FEB-2014,OCT-2001,,Y
CDISCPILOT01,701,1287,1,MULTIVITAMIN,UNCODED,PROPHYLAXIS OR NON-THERAPEUTIC USE,UNCODED,1,TABLET,QD,ORAL,WEEK 6,06-MAR-2014,OCT-2001,,Y
CDISCPILOT01,701,1287,1,MULTIVITAMIN,UNCODED,PROPHYLAXIS OR NON-THERAPEUTIC USE,UNCODED,1,TABLET,QD,ORAL,WEEK 8,21-MAR-2014,OCT-2001,,Y
CDISCPILOT01,701,1287,1,MULTIVITAMIN,UNCODED,PROPHYLAXIS OR NON-THERAPEUTIC USE,UNCODED,1,TABLET,QD,ORAL,WEEK 12,17-APR-2014,OCT-2001,,Y
CDISCPILOT01,701,1287,1,MULTIVITAMIN,UNCODED,PROPHYLAXIS OR NON-THERAPEUTIC USE,UNCODED,1,TABLET,QD,ORAL,WEEK 16,15-MAY-2014,OCT-2001,,Y
CDISCPILOT01,701,1287,1,MULTIVITAMIN,UNCODED,PROPHYLAXIS OR NON-THERAPEUTIC USE,UNCODED,1,TABLET,QD,ORAL,WEEK 20,12-JUN-2014,OCT-2001,,Y
CDISCPILOT01,701,1287,1,MULTIVITAMIN,UNCODED,PROPHYLAXIS OR NON-THERAPEUTIC USE,UNCODED,1,TABLET,QD,ORAL,WEEK 24,12-JUL-2014,OCT-2001,,Y
CDISCPILOT01,701,1287,1,MULTIVITAMIN,UNCODED,PROPHYLAXIS OR NON-THERAPEUTIC USE,UNCODED,1,TABLET,QD,ORAL,WEEK 26,26-JUL-2014,OCT-2001,,Y
CDISCPILOT01,701,1287,2,PREMARIN,ESTROGENS CONJUGATED,PROPHYLAXIS OR NON-THERAPEUTIC USE,GENITO URINARY SYSTEM AND SEX HORMONES,0.625,mg,QD,ORAL,SCREENING 1,17-JAN-2014,28-JUN-2013,,Y
CDISCPILOT01,701,1287,2,PREMARIN,ESTROGENS CONJUGATED,PROPHYLAXIS OR NON-THERAPEUTIC USE,GENITO URINARY SYSTEM AND SEX HORMONES,0.625,mg,QD,ORAL,SCREENING 2,23-JAN-2014,28-JUN-2013,,Y
CDISCPILOT01,701,1287,2,PREMARIN,ESTROGENS CONJUGATED,PROPHYLAXIS OR NON-THERAPEUTIC USE,GENITO URINARY SYSTEM AND SEX HORMONES,0.625,mg,QD,ORAL,BASELINE,25-JAN-2014,28-JUN-2013,,Y
CDISCPILOT01,701,1287,2,PREMARIN,ESTROGENS CONJUGATED,PROPHYLAXIS OR NON-THERAPEUTIC USE,GENITO URINARY SYSTEM AND SEX HORMONES,0.625,mg,QD,ORAL,WEEK 2,11-FEB-2014,28-JUN-2013,,Y
CDISCPILOT01,701,1287,2,PREMARIN,ESTROGENS CONJUGATED,PROPHYLAXIS OR NON-THERAPEUTIC USE,GENITO URINARY SYSTEM AND SEX HORMONES,0.625,mg,QD,ORAL,WEEK 4,20-FEB-2014,28-JUN-2013,,Y
CDISCPILOT01,701,1287,2,PREMARIN,ESTROGENS CONJUGATED,PROPHYLAXIS OR NON-THERAPEUTIC USE,GENITO URINARY SYSTEM AND SEX HORMONES,0.625,mg,QD,ORAL,AMBUL ECG REMOVAL,22-FEB-2014,28-JUN-2013,,Y
CDISCPILOT01,701,1287,2,PREMARIN,ESTROGENS CONJUGATED,PROPHYLAXIS OR NON-THERAPEUTIC USE,GENITO URINARY SYSTEM AND SEX HORMONES,0.625,mg,QD,ORAL,WEEK 6,06-MAR-2014,28-JUN-2013,,Y
CDISCPILOT01,701,1287,2,PREMARIN,ESTROGENS CONJUGATED,PROPHYLAXIS OR NON-THERAPEUTIC USE,GENITO URINARY SYSTEM AND SEX HORMONES,0.625,mg,QD,ORAL,WEEK 8,21-MAR-2014,28-JUN-2013,,Y
CDISCPILOT01,701,1287,2,PREMARIN,ESTROGENS CONJUGATED,PROPHYLAXIS OR NON-THERAPEUTIC USE,GENITO URINARY SYSTEM AND SEX HORMONES,0.625,mg,QD,ORAL,WEEK 12,17-APR-2014,28-JUN-2013,,Y
CDISCPILOT01,701,1287,2,PREMARIN,ESTROGENS CONJUGATED,PROPHYLAXIS OR NON-THERAPEUTIC USE,GENITO URINARY SYSTEM AND SEX HORMONES,0.625,mg,QD,ORAL,WEEK 16,15-MAY-2014,28-JUN-2013,,Y
CDISCPILOT01,701,1287,2,PREMARIN,ESTROGENS CONJUGATED,PROPHYLAXIS OR NON-THERAPEUTIC USE,GENITO URINARY SYSTEM AND SEX HORMONES,0.625,mg,QD,ORAL,WEEK 20,12-JUN-2014,28-JUN-2013,,Y
CDISCPILOT01,701,1287,2,PREMARIN,ESTROGENS CONJUGATED,PROPHYLAXIS OR NON-THERAPEUTIC USE,GENITO URINARY SYSTEM AND SEX HORMONES,0.625,mg,QD,ORAL,WEEK 24,12-JUL-2014,28-JUN-2013,,Y
CDISCPILOT01,701,1287,2,PREMARIN,ESTROGENS CONJUGATED,PROPHYLAXIS OR NON-THERAPEUTIC USE,GENITO URINARY SYSTEM AND SEX HORMONES,0.625,mg,QD,ORAL,WEEK 26,26-JUL-2014,28-JUN-2013,,Y
CDISCPILOT01,701,1287,3,ALOE VERA,UNCODED,,UNCODED,1,VIAL,PRN,TOPICAL,WEEK 8,21-MAR-2014,09-MAR-2014,,Y
CDISCPILOT01,701,1287,3,ALOE VERA,UNCODED,,UNCODED,1,VIAL,PRN,TOPICAL,WEEK 12,17-APR-2014,09-MAR-2014,,Y
CDISCPILOT01,701,1287,3,ALOE VERA,UNCODED,,UNCODED,1,VIAL,PRN,TOPICAL,WEEK 16,15-MAY-2014,09-MAR-2014,,Y
CDISCPILOT01,701,1287,3,ALOE VERA,UNCODED,,UNCODED,1,VIAL,PRN,TOPICAL,WEEK 20,12-JUN-2014,09-MAR-2014,,Y
CDISCPILOT01,701,1287,3,ALOE VERA,UNCODED,,UNCODED,1,VIAL,PRN,TOPICAL,WEEK 24,12-JUL-2014,09-MAR-2014,,Y
CDISCPILOT01,701,1287,3,ALOE VERA,UNCODED,,UNCODED,1,VIAL,PRN,TOPICAL,WEEK 26,26-JUL-2014,09-MAR-2014,,Y
CDISCPILOT01,701,1287,4,HYDROCORTISONE,HYDROCORTISONE,,"SYSTEMIC HORMONAL PREPARATIONS, EXCL.",2,VIAL,QD,TOPICAL,WEEK 16,15-MAY-2014,18-APR-2014,,Y
CDISCPILOT01,701,1287,4,HYDROCORTISONE,HYDROCORTISONE,,"SYSTEMIC HORMONAL PREPARATIONS, EXCL.",2,VIAL,QD,TOPICAL,WEEK 20,12-JUN-2014,18-APR-2014,,Y
CDISCPILOT01,701,1287,4,HYDROCORTISONE,HYDROCORTISONE,,"SYSTEMIC HORMONAL PREPARATIONS, EXCL.",2,VIAL,QD,TOPICAL,WEEK 24,12-JUL-2014,18-APR-2014,,Y
CDISCPILOT01,701,1287,4,HYDROCORTISONE,HYDROCORTISONE,,"SYSTEMIC HORMONAL PREPARATIONS, EXCL.",2,VIAL,QD,TOPICAL,WEEK 26,26-JUL-2014,18-APR-2014,,Y
CDISCPILOT01,701,1294,1,HISMANAL,UNCODED,,UNCODED,10,mg,PRN,ORAL,SCREENING 1,17-MAR-2013,MAR-2012,,Y
CDISCPILOT01,701,1294,1,HISMANAL,UNCODED,,UNCODED,10,mg,PRN,ORAL,SCREENING 2,22-MAR-2013,MAR-2012,,Y
CDISCPILOT01,701,1294,1,HISMANAL,UNCODED,,UNCODED,10,mg,PRN,ORAL,BASELINE,24-MAR-2013,MAR-2012,,Y
CDISCPILOT01,701,1294,1,HISMANAL,UNCODED,,UNCODED,10,mg,PRN,ORAL,WEEK 2,10-APR-2013,MAR-2012,,Y
CDISCPILOT01,701,1294,1,HISMANAL,UNCODED,,UNCODED,10,mg,PRN,ORAL,WEEK 4,24-APR-2013,MAR-2012,,Y
CDISCPILOT01,701,1294,1,HISMANAL,UNCODED,,UNCODED,10,mg,PRN,ORAL,AMBUL ECG REMOVAL,26-APR-2013,MAR-2012,,Y
CDISCPILOT01,701,1294,1,HISMANAL,UNCODED,,UNCODED,10,mg,PRN,ORAL,WEEK 6,08-MAY-2013,MAR-2012,,Y
CDISCPILOT01,701,1294,1,HISMANAL,UNCODED,,UNCODED,10,mg,PRN,ORAL,WEEK 8,22-MAY-2013,MAR-2012,,Y
CDISCPILOT01,701,1294,1,HISMANAL,UNCODED,,UNCODED,10,mg,PRN,ORAL,WEEK 12,14-JUN-2013,MAR-2012,,Y
CDISCPILOT01,701,1294,1,HISMANAL,UNCODED,,UNCODED,10,mg,PRN,ORAL,AE FOLLOW-UP,23-AUG-2013,MAR-2012,,Y
CDISCPILOT01,701,1294,1,HISMANAL,UNCODED,,UNCODED,10,mg,PRN,ORAL,RETRIEVAL,08-OCT-2013,MAR-2012,,Y
CDISCPILOT01,701,1294,2,MULTIVITAMIN,UNCODED,PROPHYLAXIS OR NON-THERAPEUTIC USE,UNCODED,3,TABLET,QD,ORAL,SCREENING 1,17-MAR-2013,DEC-2012,,Y
CDISCPILOT01,701,1294,2,MULTIVITAMIN,UNCODED,PROPHYLAXIS OR NON-THERAPEUTIC USE,UNCODED,3,TABLET,QD,ORAL,SCREENING 2,22-MAR-2013,DEC-2012,,Y
CDISCPILOT01,701,1294,2,MULTIVITAMIN,UNCODED,PROPHYLAXIS OR NON-THERAPEUTIC USE,UNCODED,3,TABLET,QD,ORAL,BASELINE,24-MAR-2013,DEC-2012,,Y
CDISCPILOT01,701,1294,2,MULTIVITAMIN,UNCODED,PROPHYLAXIS OR NON-THERAPEUTIC USE,UNCODED,3,TABLET,QD,ORAL,WEEK 2,10-APR-2013,DEC-2012,,Y
CDISCPILOT01,701,1294,2,MULTIVITAMIN,UNCODED,PROPHYLAXIS OR NON-THERAPEUTIC USE,UNCODED,3,TABLET,QD,ORAL,WEEK 4,24-APR-2013,DEC-2012,,Y
CDISCPILOT01,701,1294,2,MULTIVITAMIN,UNCODED,PROPHYLAXIS OR NON-THERAPEUTIC USE,UNCODED,3,TABLET,QD,ORAL,AMBUL ECG REMOVAL,26-APR-2013,DEC-2012,,Y
CDISCPILOT01,701,1294,2,MULTIVITAMIN,UNCODED,PROPHYLAXIS OR NON-THERAPEUTIC USE,UNCODED,3,TABLET,QD,ORAL,WEEK 6,08-MAY-2013,DEC-2012,,Y
CDISCPILOT01,701,1294,2,MULTIVITAMIN,UNCODED,PROPHYLAXIS OR NON-THERAPEUTIC USE,UNCODED,3,TABLET,QD,ORAL,WEEK 8,22-MAY-2013,DEC-2012,,Y
CDISCPILOT01,701,1294,2,MULTIVITAMIN,UNCODED,PROPHYLAXIS OR NON-THERAPEUTIC USE,UNCODED,3,TABLET,QD,ORAL,WEEK 12,14-JUN-2013,DEC-2012,,Y
CDISCPILOT01,701,1294,2,MULTIVITAMIN,UNCODED,PROPHYLAXIS OR NON-THERAPEUTIC USE,UNCODED,3,TABLET,QD,ORAL,AE FOLLOW-UP,23-AUG-2013,DEC-2012,,Y
CDISCPILOT01,701,1294,2,MULTIVITAMIN,UNCODED,PROPHYLAXIS OR NON-THERAPEUTIC USE,UNCODED,3,TABLET,QD,ORAL,RETRIEVAL,08-OCT-2013,DEC-2012,,Y
CDISCPILOT01,701,1294,3,NASACORT,UNCODED,,UNCODED,1,PUFF,QD,RESPIRATORY (INHALATION),SCREENING 1,17-MAR-2013,MAR-2012,,Y
CDISCPILOT01,701,1294,3,NASACORT,UNCODED,,UNCODED,1,PUFF,QD,RESPIRATORY (INHALATION),SCREENING 2,22-MAR-2013,MAR-2012,,Y
CDISCPILOT01,701,1294,3,NASACORT,UNCODED,,UNCODED,1,PUFF,QD,RESPIRATORY (INHALATION),BASELINE,24-MAR-2013,MAR-2012,,Y
CDISCPILOT01,701,1294,3,NASACORT,UNCODED,,UNCODED,1,PUFF,QD,RESPIRATORY (INHALATION),WEEK 2,10-APR-2013,MAR-2012,,Y
CDISCPILOT01,701,1294,3,NASACORT,UNCODED,,UNCODED,1,PUFF,QD,RESPIRATORY (INHALATION),WEEK 4,24-APR-2013,MAR-2012,,Y
CDISCPILOT01,701,1294,3,NASACORT,UNCODED,,UNCODED,1,PUFF,QD,RESPIRATORY (INHALATION),AMBUL ECG REMOVAL,26-APR-2013,MAR-2012,,Y
CDISCPILOT01,701,1294,3,NASACORT,UNCODED,,UNCODED,1,PUFF,QD,RESPIRATORY (INHALATION),WEEK 6,08-MAY-2013,MAR-2012,,Y
CDISCPILOT01,701,1294,3,NASACORT,UNCODED,,UNCODED,1,PUFF,QD,RESPIRATORY (INHALATION),WEEK 8,22-MAY-2013,MAR-2012,,Y
CDISCPILOT01,701,1294,3,NASACORT,UNCODED,,UNCODED,1,PUFF,QD,RESPIRATORY (INHALATION),WEEK 12,14-JUN-2013,MAR-2012,,Y
CDISCPILOT01,701,1294,3,NASACORT,UNCODED,,UNCODED,1,PUFF,QD,RESPIRATORY (INHALATION),AE FOLLOW-UP,23-AUG-2013,MAR-2012,,Y
CDISCPILOT01,701,1294,3,NASACORT,UNCODED,,UNCODED,1,PUFF,QD,RESPIRATORY (INHALATION),RETRIEVAL,08-OCT-2013,MAR-2012,,Y
CDISCPILOT01,701,1294,4,HYDROCORTISONE,HYDROCORTISONE,,"SYSTEMIC HORMONAL PREPARATIONS, EXCL.",1,VIAL,QD,TOPICAL,WEEK 12,14-JUN-2013,04-JUN-2013,12-JUN-2013,N
CDISCPILOT01,701,1302,1,ADVIL,UNCODED,,UNCODED,2,TABLET,PRN,ORAL,SCREENING 1,20-AUG-2013,2010,,Y
CDISCPILOT01,701,1302,1,ADVIL,UNCODED,,UNCODED,2,TABLET,PRN,ORAL,SCREENING 2,27-AUG-2013,2010,,Y
CDISCPILOT01,701,1302,1,ADVIL,UNCODED,,UNCODED,2,TABLET,PRN,ORAL,BASELINE,29-AUG-2013,2010,,Y
CDISCPILOT01,701,1302,1,ADVIL,UNCODED,,UNCODED,2,TABLET,PRN,ORAL,WEEK 2,15-SEP-2013,2010,,Y
CDISCPILOT01,701,1302,1,ADVIL,UNCODED,,UNCODED,2,TABLET,PRN,ORAL,WEEK 4,24-SEP-2013,2010,,Y
CDISCPILOT01,701,1302,1,ADVIL,UNCODED,,UNCODED,2,TABLET,PRN,ORAL,AMBUL ECG REMOVAL,26-SEP-2013,2010,,Y
CDISCPILOT01,701,1302,1,ADVIL,UNCODED,,UNCODED,2,TABLET,PRN,ORAL,WEEK 6,08-OCT-2013,2010,,Y
CDISCPILOT01,701,1302,1,ADVIL,UNCODED,,UNCODED,2,TABLET,PRN,ORAL,WEEK 8,22-OCT-2013,2010,,Y
CDISCPILOT01,701,1302,1,ADVIL,UNCODED,,UNCODED,2,TABLET,PRN,ORAL,WEEK 12,05-NOV-2013,2010,,Y
CDISCPILOT01,701,1302,1,ADVIL,UNCODED,,UNCODED,2,TABLET,PRN,ORAL,AE FOLLOW-UP,16-DEC-2013,2010,,Y
CDISCPILOT01,701,1302,1,ADVIL,UNCODED,,UNCODED,2,TABLET,PRN,ORAL,RETRIEVAL,13-FEB-2014,2010,,Y
CDISCPILOT01,701,1302,2,EXCEDRIN,UNCODED,,UNCODED,2,TABLET,PRN,ORAL,SCREENING 1,20-AUG-2013,2011,,Y
CDISCPILOT01,701,1302,2,EXCEDRIN,UNCODED,,UNCODED,2,TABLET,PRN,ORAL,SCREENING 2,27-AUG-2013,2011,,Y
CDISCPILOT01,701,1302,2,EXCEDRIN,UNCODED,,UNCODED,2,TABLET,PRN,ORAL,BASELINE,29-AUG-2013,2011,,Y
CDISCPILOT01,701,1302,2,EXCEDRIN,UNCODED,,UNCODED,2,TABLET,PRN,ORAL,WEEK 2,15-SEP-2013,2011,,Y
CDISCPILOT01,701,1302,2,EXCEDRIN,UNCODED,,UNCODED,2,TABLET,PRN,ORAL,WEEK 4,24-SEP-2013,2011,,Y
CDISCPILOT01,701,1302,2,EXCEDRIN,UNCODED,,UNCODED,2,TABLET,PRN,ORAL,AMBUL ECG REMOVAL,26-SEP-2013,2011,,Y
CDISCPILOT01,701,1302,2,EXCEDRIN,UNCODED,,UNCODED,2,TABLET,PRN,ORAL,WEEK 6,08-OCT-2013,2011,,Y
CDISCPILOT01,701,1302,2,EXCEDRIN,UNCODED,,UNCODED,2,TABLET,PRN,ORAL,WEEK 8,22-OCT-2013,2011,,Y
CDISCPILOT01,701,1302,2,EXCEDRIN,UNCODED,,UNCODED,2,TABLET,PRN,ORAL,WEEK 12,05-NOV-2013,2011,,Y
CDISCPILOT01,701,1302,2,EXCEDRIN,UNCODED,,UNCODED,2,TABLET,PRN,ORAL,AE FOLLOW-UP,16-DEC-2013,2011,,Y
CDISCPILOT01,701,1302,2,EXCEDRIN,UNCODED,,UNCODED,2,TABLET,PRN,ORAL,RETRIEVAL,13-FEB-2014,2011,,Y
CDISCPILOT01,701,1302,3,METAMUCIL,UNCODED,,UNCODED,2,Tbsp,QD,ORAL,SCREENING 1,20-AUG-2013,01-MAR-2012,,Y
CDISCPILOT01,701,1302,3,METAMUCIL,UNCODED,,UNCODED,2,Tbsp,QD,ORAL,SCREENING 2,27-AUG-2013,01-MAR-2012,,Y
CDISCPILOT01,701,1302,3,METAMUCIL,UNCODED,,UNCODED,2,Tbsp,QD,ORAL,BASELINE,29-AUG-2013,01-MAR-2012,,Y
CDISCPILOT01,701,1302,3,METAMUCIL,UNCODED,,UNCODED,2,Tbsp,QD,ORAL,WEEK 2,15-SEP-2013,01-MAR-2012,,Y
CDISCPILOT01,701,1302,3,METAMUCIL,UNCODED,,UNCODED,2,Tbsp,QD,ORAL,WEEK 4,24-SEP-2013,01-MAR-2012,,Y
CDISCPILOT01,701,1302,3,METAMUCIL,UNCODED,,UNCODED,2,Tbsp,QD,ORAL,AMBUL ECG REMOVAL,26-SEP-2013,01-MAR-2012,,Y
CDISCPILOT01,701,1302,3,METAMUCIL,UNCODED,,UNCODED,2,Tbsp,QD,ORAL,WEEK 6,08-OCT-2013,01-MAR-2012,,Y
CDISCPILOT01,701,1302,3,METAMUCIL,UNCODED,,UNCODED,2,Tbsp,QD,ORAL,WEEK 8,22-OCT-2013,01-MAR-2012,,Y
CDISCPILOT01,701,1302,3,METAMUCIL,UNCODED,,UNCODED,2,Tbsp,QD,ORAL,WEEK 12,05-NOV-2013,01-MAR-2012,,Y
CDISCPILOT01,701,1302,3,METAMUCIL,UNCODED,,UNCODED,2,Tbsp,QD,ORAL,AE FOLLOW-UP,16-DEC-2013,01-MAR-2012,,Y
CDISCPILOT01,701,1302,3,METAMUCIL,UNCODED,,UNCODED,2,Tbsp,QD,ORAL,RETRIEVAL,13-FEB-2014,01-MAR-2012,,Y
CDISCPILOT01,701,1302,4,MULTIVITAMINS,UNCODED,PROPHYLAXIS OR NON-THERAPEUTIC USE,UNCODED,1,TABLET,QD,ORAL,SCREENING 1,20-AUG-2013,2010,,Y
CDISCPILOT01,701,1302,4,MULTIVITAMINS,UNCODED,PROPHYLAXIS OR NON-THERAPEUTIC USE,UNCODED,1,TABLET,QD,ORAL,SCREENING 2,27-AUG-2013,2010,,Y
CDISCPILOT01,701,1302,4,MULTIVITAMINS,UNCODED,PROPHYLAXIS OR NON-THERAPEUTIC USE,UNCODED,1,TABLET,QD,ORAL,BASELINE,29-AUG-2013,2010,,Y
CDISCPILOT01,701,1302,4,MULTIVITAMINS,UNCODED,PROPHYLAXIS OR NON-THERAPEUTIC USE,UNCODED,1,TABLET,QD,ORAL,WEEK 2,15-SEP-2013,2010,,Y
CDISCPILOT01,701,1302,4,MULTIVITAMINS,UNCODED,PROPHYLAXIS OR NON-THERAPEUTIC USE,UNCODED,1,TABLET,QD,ORAL,WEEK 4,24-SEP-2013,2010,,Y
CDISCPILOT01,701,1302,4,MULTIVITAMINS,UNCODED,PROPHYLAXIS OR NON-THERAPEUTIC USE,UNCODED,1,TABLET,QD,ORAL,AMBUL ECG REMOVAL,26-SEP-2013,2010,,Y
CDISCPILOT01,701,1302,4,MULTIVITAMINS,UNCODED,PROPHYLAXIS OR NON-THERAPEUTIC USE,UNCODED,1,TABLET,QD,ORAL,WEEK 6,08-OCT-2013,2010,,Y
CDISCPILOT01,701,1302,4,MULTIVITAMINS,UNCODED,PROPHYLAXIS OR NON-THERAPEUTIC USE,UNCODED,1,TABLET,QD,ORAL,WEEK 8,22-OCT-2013,2010,,Y
CDISCPILOT01,701,1302,4,MULTIVITAMINS,UNCODED,PROPHYLAXIS OR NON-THERAPEUTIC USE,UNCODED,1,TABLET,QD,ORAL,WEEK 12,05-NOV-2013,2010,,Y
CDISCPILOT01,701,1302,4,MULTIVITAMINS,UNCODED,PROPHYLAXIS OR NON-THERAPEUTIC USE,UNCODED,1,TABLET,QD,ORAL,AE FOLLOW-UP,16-DEC-2013,2010,,Y
CDISCPILOT01,701,1302,4,MULTIVITAMINS,UNCODED,PROPHYLAXIS OR NON-THERAPEUTIC USE,UNCODED,1,TABLET,QD,ORAL,RETRIEVAL,13-FEB-2014,2010,,Y
CDISCPILOT01,701,1302,5,NEO-SYNEPHRINE,UNCODED,,UNCODED,1,SPRAY,PRN,NASAL,WEEK 2,15-SEP-2013,01-SEP-2013,30-SEP-2013,N
CDISCPILOT01,701,1302,5,NEO-SYNEPHRINE,UNCODED,,UNCODED,1,SPRAY,PRN,NASAL,WEEK 4,24-SEP-2013,01-SEP-2013,30-SEP-2013,N
CDISCPILOT01,701,1302,5,NEO-SYNEPHRINE,UNCODED,,UNCODED,1,SPRAY,PRN,NASAL,AMBUL ECG REMOVAL,26-SEP-2013,01-SEP-2013,30-SEP-2013,N
CDISCPILOT01,701,1302,5,NEO-SYNEPHRINE,UNCODED,,UNCODED,1,SPRAY,PRN,NASAL,WEEK 6,08-OCT-2013,01-SEP-2013,30-SEP-2013,N
CDISCPILOT01,701,1302,6,PSEUDOEPHEDRINE HYDROCHLORIDE,UNCODED,,UNCODED,2,TABLET,Q4H,ORAL,WEEK 2,15-SEP-2013,02-SEP-2013,30-SEP-2013,N
CDISCPILOT01,701,1302,6,PSEUDOEPHEDRINE HYDROCHLORIDE,UNCODED,,UNCODED,2,TABLET,Q4H,ORAL,WEEK 4,24-SEP-2013,02-SEP-2013,30-SEP-2013,N
CDISCPILOT01,701,1302,6,PSEUDOEPHEDRINE HYDROCHLORIDE,UNCODED,,UNCODED,2,TABLET,Q4H,ORAL,AMBUL ECG REMOVAL,26-SEP-2013,02-SEP-2013,30-SEP-2013,N
CDISCPILOT01,701,1302,6,PSEUDOEPHEDRINE HYDROCHLORIDE,UNCODED,,UNCODED,2,TABLET,Q4H,ORAL,WEEK 6,08-OCT-2013,02-SEP-2013,30-SEP-2013,N
CDISCPILOT01,701,1317,1,ASPIRIN,ACETYLSALICYLIC ACID,PROPHYLAXIS OR NON-THERAPEUTIC USE,NERVOUS SYSTEM,1,TABLET,QD,ORAL,SCREENING 1,10-MAY-2014,2013,,Y
CDISCPILOT01,701,1317,1,ASPIRIN,ACETYLSALICYLIC ACID,PROPHYLAXIS OR NON-THERAPEUTIC USE,NERVOUS SYSTEM,1,TABLET,QD,ORAL,SCREENING 2,20-MAY-2014,2013,,Y
CDISCPILOT01,701,1317,1,ASPIRIN,ACETYLSALICYLIC ACID,PROPHYLAXIS OR NON-THERAPEUTIC USE,NERVOUS SYSTEM,1,TABLET,QD,ORAL,BASELINE,22-MAY-2014,2013,,Y
CDISCPILOT01,701,1317,1,ASPIRIN,ACETYLSALICYLIC ACID,PROPHYLAXIS OR NON-THERAPEUTIC USE,NERVOUS SYSTEM,1,TABLET,QD,ORAL,WEEK 2,05-JUN-2014,2013,,Y
CDISCPILOT01,701,1317,1,ASPIRIN,ACETYLSALICYLIC ACID,PROPHYLAXIS OR NON-THERAPEUTIC USE,NERVOUS SYSTEM,1,TABLET,QD,ORAL,WEEK 4,19-JUN-2014,2013,,Y
CDISCPILOT01,701,1317,1,ASPIRIN,ACETYLSALICYLIC ACID,PROPHYLAXIS OR NON-THERAPEUTIC USE,NERVOUS SYSTEM,1,TABLET,QD,ORAL,AMBUL ECG REMOVAL,21-JUN-2014,2013,,Y
CDISCPILOT01,701,1317,1,ASPIRIN,ACETYLSALICYLIC ACID,PROPHYLAXIS OR NON-THERAPEUTIC USE,NERVOUS SYSTEM,1,TABLET,QD,ORAL,WEEK 6,03-JUL-2014,2013,,Y
CDISCPILOT01,701,1317,1,ASPIRIN,ACETYLSALICYLIC ACID,PROPHYLAXIS OR NON-THERAPEUTIC USE,NERVOUS SYSTEM,1,TABLET,QD,ORAL,WEEK 8,22-JUL-2014,2013,,Y
CDISCPILOT01,701,1317,1,ASPIRIN,ACETYLSALICYLIC ACID,PROPHYLAXIS OR NON-THERAPEUTIC USE,NERVOUS SYSTEM,1,TABLET,QD,ORAL,WEEK 12,15-AUG-2014,2013,,Y
CDISCPILOT01,701,1317,1,ASPIRIN,ACETYLSALICYLIC ACID,PROPHYLAXIS OR NON-THERAPEUTIC USE,NERVOUS SYSTEM,1,TABLET,QD,ORAL,WEEK 16,11-SEP-2014,2013,,Y
CDISCPILOT01,701,1317,1,ASPIRIN,ACETYLSALICYLIC ACID,PROPHYLAXIS OR NON-THERAPEUTIC USE,NERVOUS SYSTEM,1,TABLET,QD,ORAL,WEEK 20,09-OCT-2014,2013,,Y
CDISCPILOT01,701,1317,1,ASPIRIN,ACETYLSALICYLIC ACID,PROPHYLAXIS OR NON-THERAPEUTIC USE,NERVOUS SYSTEM,1,TABLET,QD,ORAL,WEEK 24,06-NOV-2014,2013,,Y
CDISCPILOT01,701,1317,1,ASPIRIN,ACETYLSALICYLIC ACID,PROPHYLAXIS OR NON-THERAPEUTIC USE,NERVOUS SYSTEM,1,TABLET,QD,ORAL,WEEK 26,20-NOV-2014,2013,,Y
CDISCPILOT01,701,1317,2,FOLIC ACID,UNCODED,PROPHYLAXIS OR NON-THERAPEUTIC USE,UNCODED,1,TABLET,QD,ORAL,SCREENING 1,10-MAY-2014,2013,,Y
CDISCPILOT01,701,1317,2,FOLIC ACID,UNCODED,PROPHYLAXIS OR NON-THERAPEUTIC USE,UNCODED,1,TABLET,QD,ORAL,SCREENING 2,20-MAY-2014,2013,,Y
CDISCPILOT01,701,1317,2,FOLIC ACID,UNCODED,PROPHYLAXIS OR NON-THERAPEUTIC USE,UNCODED,1,TABLET,QD,ORAL,BASELINE,22-MAY-2014,2013,,Y
CDISCPILOT01,701,1317,2,FOLIC ACID,UNCODED,PROPHYLAXIS OR NON-THERAPEUTIC USE,UNCODED,1,TABLET,QD,ORAL,WEEK 2,05-JUN-2014,2013,,Y
CDISCPILOT01,701,1317,2,FOLIC ACID,UNCODED,PROPHYLAXIS OR NON-THERAPEUTIC USE,UNCODED,1,TABLET,QD,ORAL,WEEK 4,19-JUN-2014,2013,,Y
CDISCPILOT01,701,1317,2,FOLIC ACID,UNCODED,PROPHYLAXIS OR NON-THERAPEUTIC USE,UNCODED,1,TABLET,QD,ORAL,AMBUL ECG REMOVAL,21-JUN-2014,2013,,Y
CDISCPILOT01,701,1317,2,FOLIC ACID,UNCODED,PROPHYLAXIS OR NON-THERAPEUTIC USE,UNCODED,1,TABLET,QD,ORAL,WEEK 6,03-JUL-2014,2013,,Y
CDISCPILOT01,701,1317,2,FOLIC ACID,UNCODED,PROPHYLAXIS OR NON-THERAPEUTIC USE,UNCODED,1,TABLET,QD,ORAL,WEEK 8,22-JUL-2014,2013,,Y
CDISCPILOT01,701,1317,2,FOLIC ACID,UNCODED,PROPHYLAXIS OR NON-THERAPEUTIC USE,UNCODED,1,TABLET,QD,ORAL,WEEK 12,15-AUG-2014,2013,,Y
CDISCPILOT01,701,1317,2,FOLIC ACID,UNCODED,PROPHYLAXIS OR NON-THERAPEUTIC USE,UNCODED,1,TABLET,QD,ORAL,WEEK 16,11-SEP-2014,2013,,Y
CDISCPILOT01,701,1317,2,FOLIC ACID,UNCODED,PROPHYLAXIS OR NON-THERAPEUTIC USE,UNCODED,1,TABLET,QD,ORAL,WEEK 20,09-OCT-2014,2013,,Y
CDISCPILOT01,701,1317,2,FOLIC ACID,UNCODED,PROPHYLAXIS OR NON-THERAPEUTIC USE,UNCODED,1,TABLET,QD,ORAL,WEEK 24,06-NOV-2014,2013,,Y
CDISCPILOT01,701,1317,2,FOLIC ACID,UNCODED,PROPHYLAXIS OR NON-THERAPEUTIC USE,UNCODED,1,TABLET,QD,ORAL,WEEK 26,20-NOV-2014,2013,,Y
CDISCPILOT01,701,1317,3,MULTIVITAMIN,UNCODED,PROPHYLAXIS OR NON-THERAPEUTIC USE,UNCODED,1,TABLET,QD,ORAL,SCREENING 1,10-MAY-2014,2009,,Y
CDISCPILOT01,701,1317,3,MULTIVITAMIN,UNCODED,PROPHYLAXIS OR NON-THERAPEUTIC USE,UNCODED,1,TABLET,QD,ORAL,SCREENING 2,20-MAY-2014,2009,,Y
CDISCPILOT01,701,1317,3,MULTIVITAMIN,UNCODED,PROPHYLAXIS OR NON-THERAPEUTIC USE,UNCODED,1,TABLET,QD,ORAL,BASELINE,22-MAY-2014,2009,,Y
CDISCPILOT01,701,1317,3,MULTIVITAMIN,UNCODED,PROPHYLAXIS OR NON-THERAPEUTIC USE,UNCODED,1,TABLET,QD,ORAL,WEEK 2,05-JUN-2014,2009,,Y
CDISCPILOT01,701,1317,3,MULTIVITAMIN,UNCODED,PROPHYLAXIS OR NON-THERAPEUTIC USE,UNCODED,1,TABLET,QD,ORAL,WEEK 4,19-JUN-2014,2009,,Y
CDISCPILOT01,701,1317,3,MULTIVITAMIN,UNCODED,PROPHYLAXIS OR NON-THERAPEUTIC USE,UNCODED,1,TABLET,QD,ORAL,AMBUL ECG REMOVAL,21-JUN-2014,2009,,Y
CDISCPILOT01,701,1317,3,MULTIVITAMIN,UNCODED,PROPHYLAXIS OR NON-THERAPEUTIC USE,UNCODED,1,TABLET,QD,ORAL,WEEK 6,03-JUL-2014,2009,,Y
CDISCPILOT01,701,1317,3,MULTIVITAMIN,UNCODED,PROPHYLAXIS OR NON-THERAPEUTIC USE,UNCODED,1,TABLET,QD,ORAL,WEEK 8,22-JUL-2014,2009,,Y
CDISCPILOT01,701,1317,3,MULTIVITAMIN,UNCODED,PROPHYLAXIS OR NON-THERAPEUTIC USE,UNCODED,1,TABLET,QD,ORAL,WEEK 12,15-AUG-2014,2009,,Y
CDISCPILOT01,701,1317,3,MULTIVITAMIN,UNCODED,PROPHYLAXIS OR NON-THERAPEUTIC USE,UNCODED,1,TABLET,QD,ORAL,WEEK 16,11-SEP-2014,2009,,Y
CDISCPILOT01,701,1317,3,MULTIVITAMIN,UNCODED,PROPHYLAXIS OR NON-THERAPEUTIC USE,UNCODED,1,TABLET,QD,ORAL,WEEK 20,09-OCT-2014,2009,,Y
CDISCPILOT01,701,1317,3,MULTIVITAMIN,UNCODED,PROPHYLAXIS OR NON-THERAPEUTIC USE,UNCODED,1,TABLET,QD,ORAL,WEEK 24,06-NOV-2014,2009,,Y
CDISCPILOT01,701,1317,3,MULTIVITAMIN,UNCODED,PROPHYLAXIS OR NON-THERAPEUTIC USE,UNCODED,1,TABLET,QD,ORAL,WEEK 26,20-NOV-2014,2009,,Y
CDISCPILOT01,701,1317,4,PSYLLIUM HYDROPHILIC MUCILLOID,UNCODED,PROPHYLAXIS OR NON-THERAPEUTIC USE,UNCODED,1,TABLET,QD,ORAL,SCREENING 1,10-MAY-2014,APR-2014,,Y
CDISCPILOT01,701,1317,4,PSYLLIUM HYDROPHILIC MUCILLOID,UNCODED,PROPHYLAXIS OR NON-THERAPEUTIC USE,UNCODED,1,TABLET,QD,ORAL,SCREENING 2,20-MAY-2014,APR-2014,,Y
CDISCPILOT01,701,1317,4,PSYLLIUM HYDROPHILIC MUCILLOID,UNCODED,PROPHYLAXIS OR NON-THERAPEUTIC USE,UNCODED,1,TABLET,QD,ORAL,BASELINE,22-MAY-2014,APR-2014,,Y
CDISCPILOT01,701,1317,4,PSYLLIUM HYDROPHILIC MUCILLOID,UNCODED,PROPHYLAXIS OR NON-THERAPEUTIC USE,UNCODED,1,TABLET,QD,ORAL,WEEK 2,05-JUN-2014,APR-2014,,Y
CDISCPILOT01,701,1317,4,PSYLLIUM HYDROPHILIC MUCILLOID,UNCODED,PROPHYLAXIS OR NON-THERAPEUTIC USE,UNCODED,1,TABLET,QD,ORAL,WEEK 4,19-JUN-2014,APR-2014,,Y
CDISCPILOT01,701,1317,4,PSYLLIUM HYDROPHILIC MUCILLOID,UNCODED,PROPHYLAXIS OR NON-THERAPEUTIC USE,UNCODED,1,TABLET,QD,ORAL,AMBUL ECG REMOVAL,21-JUN-2014,APR-2014,,Y
CDISCPILOT01,701,1317,4,PSYLLIUM HYDROPHILIC MUCILLOID,UNCODED,PROPHYLAXIS OR NON-THERAPEUTIC USE,UNCODED,1,TABLET,QD,ORAL,WEEK 6,03-JUL-2014,APR-2014,,Y
CDISCPILOT01,701,1317,4,PSYLLIUM HYDROPHILIC MUCILLOID,UNCODED,PROPHYLAXIS OR NON-THERAPEUTIC USE,UNCODED,1,TABLET,QD,ORAL,WEEK 8,22-JUL-2014,APR-2014,,Y
CDISCPILOT01,701,1317,4,PSYLLIUM HYDROPHILIC MUCILLOID,UNCODED,PROPHYLAXIS OR NON-THERAPEUTIC USE,UNCODED,1,TABLET,QD,ORAL,WEEK 12,15-AUG-2014,APR-2014,,Y
CDISCPILOT01,701,1317,4,PSYLLIUM HYDROPHILIC MUCILLOID,UNCODED,PROPHYLAXIS OR NON-THERAPEUTIC USE,UNCODED,1,TABLET,QD,ORAL,WEEK 16,11-SEP-2014,APR-2014,,Y
CDISCPILOT01,701,1317,4,PSYLLIUM HYDROPHILIC MUCILLOID,UNCODED,PROPHYLAXIS OR NON-THERAPEUTIC USE,UNCODED,1,TABLET,QD,ORAL,WEEK 20,09-OCT-2014,APR-2014,,Y
CDISCPILOT01,701,1317,4,PSYLLIUM HYDROPHILIC MUCILLOID,UNCODED,PROPHYLAXIS OR NON-THERAPEUTIC USE,UNCODED,1,TABLET,QD,ORAL,WEEK 24,06-NOV-2014,APR-2014,,Y
CDISCPILOT01,701,1317,4,PSYLLIUM HYDROPHILIC MUCILLOID,UNCODED,PROPHYLAXIS OR NON-THERAPEUTIC USE,UNCODED,1,TABLET,QD,ORAL,WEEK 26,20-NOV-2014,APR-2014,,Y
CDISCPILOT01,701,1317,5,TUMS,UNCODED,,UNCODED,1,TABLET,PRN,ORAL,SCREENING 1,10-MAY-2014,2012,,Y
CDISCPILOT01,701,1317,5,TUMS,UNCODED,,UNCODED,1,TABLET,PRN,ORAL,SCREENING 2,20-MAY-2014,2012,,Y
CDISCPILOT01,701,1317,5,TUMS,UNCODED,,UNCODED,1,TABLET,PRN,ORAL,BASELINE,22-MAY-2014,2012,,Y
CDISCPILOT01,701,1317,5,TUMS,UNCODED,,UNCODED,1,TABLET,PRN,ORAL,WEEK 2,05-JUN-2014,2012,,Y
CDISCPILOT01,701,1317,5,TUMS,UNCODED,,UNCODED,1,TABLET,PRN,ORAL,WEEK 4,19-JUN-2014,2012,,Y
CDISCPILOT01,701,1317,5,TUMS,UNCODED,,UNCODED,1,TABLET,PRN,ORAL,AMBUL ECG REMOVAL,21-JUN-2014,2012,,Y
CDISCPILOT01,701,1317,5,TUMS,UNCODED,,UNCODED,1,TABLET,PRN,ORAL,WEEK 6,03-JUL-2014,2012,,Y
CDISCPILOT01,701,1317,5,TUMS,UNCODED,,UNCODED,1,TABLET,PRN,ORAL,WEEK 8,22-JUL-2014,2012,,Y
CDISCPILOT01,701,1317,5,TUMS,UNCODED,,UNCODED,1,TABLET,PRN,ORAL,WEEK 12,15-AUG-2014,2012,,Y
CDISCPILOT01,701,1317,5,TUMS,UNCODED,,UNCODED,1,TABLET,PRN,ORAL,WEEK 16,11-SEP-2014,2012,,Y
CDISCPILOT01,701,1317,5,TUMS,UNCODED,,UNCODED,1,TABLET,PRN,ORAL,WEEK 20,09-OCT-2014,2012,,Y
CDISCPILOT01,701,1317,5,TUMS,UNCODED,,UNCODED,1,TABLET,PRN,ORAL,WEEK 24,06-NOV-2014,2012,,Y
CDISCPILOT01,701,1317,5,TUMS,UNCODED,,UNCODED,1,TABLET,PRN,ORAL,WEEK 26,20-NOV-2014,2012,,Y
CDISCPILOT01,701,1317,6,VITAMIN E,UNCODED,PROPHYLAXIS OR NON-THERAPEUTIC USE,UNCODED,400,IU,QD,ORAL,SCREENING 1,10-MAY-2014,2009,,Y
CDISCPILOT01,701,1317,6,VITAMIN E,UNCODED,PROPHYLAXIS OR NON-THERAPEUTIC USE,UNCODED,400,IU,QD,ORAL,SCREENING 2,20-MAY-2014,2009,,Y
CDISCPILOT01,701,1317,6,VITAMIN E,UNCODED,PROPHYLAXIS OR NON-THERAPEUTIC USE,UNCODED,400,IU,QD,ORAL,BASELINE,22-MAY-2014,2009,,Y
CDISCPILOT01,701,1317,6,VITAMIN E,UNCODED,PROPHYLAXIS OR NON-THERAPEUTIC USE,UNCODED,400,IU,QD,ORAL,WEEK 2,05-JUN-2014,2009,,Y
CDISCPILOT01,701,1317,6,VITAMIN E,UNCODED,PROPHYLAXIS OR NON-THERAPEUTIC USE,UNCODED,400,IU,QD,ORAL,WEEK 4,19-JUN-2014,2009,,Y
CDISCPILOT01,701,1317,6,VITAMIN E,UNCODED,PROPHYLAXIS OR NON-THERAPEUTIC USE,UNCODED,400,IU,QD,ORAL,AMBUL ECG REMOVAL,21-JUN-2014,2009,,Y
CDISCPILOT01,701,1317,6,VITAMIN E,UNCODED,PROPHYLAXIS OR NON-THERAPEUTIC USE,UNCODED,400,IU,QD,ORAL,WEEK 6,03-JUL-2014,2009,,Y
CDISCPILOT01,701,1317,6,VITAMIN E,UNCODED,PROPHYLAXIS OR NON-THERAPEUTIC USE,UNCODED,400,IU,QD,ORAL,WEEK 8,22-JUL-2014,2009,,Y
CDISCPILOT01,701,1317,6,VITAMIN E,UNCODED,PROPHYLAXIS OR NON-THERAPEUTIC USE,UNCODED,400,IU,QD,ORAL,WEEK 12,15-AUG-2014,2009,,Y
CDISCPILOT01,701,1317,6,VITAMIN E,UNCODED,PROPHYLAXIS OR NON-THERAPEUTIC USE,UNCODED,400,IU,QD,ORAL,WEEK 16,11-SEP-2014,2009,,Y
CDISCPILOT01,701,1317,6,VITAMIN E,UNCODED,PROPHYLAXIS OR NON-THERAPEUTIC USE,UNCODED,400,IU,QD,ORAL,WEEK 20,09-OCT-2014,2009,,Y
CDISCPILOT01,701,1317,6,VITAMIN E,UNCODED,PROPHYLAXIS OR NON-THERAPEUTIC USE,UNCODED,400,IU,QD,ORAL,WEEK 24,06-NOV-2014,2009,,Y
CDISCPILOT01,701,1317,6,VITAMIN E,UNCODED,PROPHYLAXIS OR NON-THERAPEUTIC USE,UNCODED,400,IU,QD,ORAL,WEEK 26,20-NOV-2014,2009,,Y
CDISCPILOT01,701,1317,7,HYDROCORTISONE,HYDROCORTISONE,,"SYSTEMIC HORMONAL PREPARATIONS, EXCL.",1,VIAL,PRN,TOPICAL,WEEK 6,03-JUL-2014,03-JUL-2014,,Y
CDISCPILOT01,701,1317,7,HYDROCORTISONE,HYDROCORTISONE,,"SYSTEMIC HORMONAL PREPARATIONS, EXCL.",1,VIAL,PRN,TOPICAL,WEEK 8,22-JUL-2014,03-JUL-2014,,Y
CDISCPILOT01,701,1317,7,HYDROCORTISONE,HYDROCORTISONE,,"SYSTEMIC HORMONAL PREPARATIONS, EXCL.",1,VIAL,PRN,TOPICAL,WEEK 12,15-AUG-2014,03-JUL-2014,,Y
CDISCPILOT01,701,1317,7,HYDROCORTISONE,HYDROCORTISONE,,"SYSTEMIC HORMONAL PREPARATIONS, EXCL.",1,VIAL,PRN,TOPICAL,WEEK 16,11-SEP-2014,03-JUL-2014,,Y
CDISCPILOT01,701,1317,7,HYDROCORTISONE,HYDROCORTISONE,,"SYSTEMIC HORMONAL PREPARATIONS, EXCL.",1,VIAL,PRN,TOPICAL,WEEK 20,09-OCT-2014,03-JUL-2014,,Y
CDISCPILOT01,701,1317,7,HYDROCORTISONE,HYDROCORTISONE,,"SYSTEMIC HORMONAL PREPARATIONS, EXCL.",1,VIAL,PRN,TOPICAL,WEEK 24,06-NOV-2014,03-JUL-2014,,Y
CDISCPILOT01,701,1317,7,HYDROCORTISONE,HYDROCORTISONE,,"SYSTEMIC HORMONAL PREPARATIONS, EXCL.",1,VIAL,PRN,TOPICAL,WEEK 26,20-NOV-2014,03-JUL-2014,,Y
CDISCPILOT01,701,1324,1,HYDROCORTISONE,HYDROCORTISONE,,"SYSTEMIC HORMONAL PREPARATIONS, EXCL.",1,VIAL,QD,TOPICAL,WEEK 16,22-JAN-2013,26-DEC-2012,30-DEC-2012,N
CDISCPILOT01,701,1324,2,HYDROCORTISONE,HYDROCORTISONE,,"SYSTEMIC HORMONAL PREPARATIONS, EXCL.",1,VIAL,QD,TOPICAL,WEEK 16,22-JAN-2013,11-JAN-2013,15-JAN-2013,N
CDISCPILOT01,701,1324,3,HYDROCORTISONE,HYDROCORTISONE,,"SYSTEMIC HORMONAL PREPARATIONS, EXCL.",1,VIAL,PRN,TOPICAL,WEEK 24,19-MAR-2013,21-FEB-2013,,Y
CDISCPILOT01,701,1324,3,HYDROCORTISONE,HYDROCORTISONE,,"SYSTEMIC HORMONAL PREPARATIONS, EXCL.",1,VIAL,PRN,TOPICAL,WEEK 26,02-APR-2013,21-FEB-2013,,Y
CDISCPILOT01,701,1341,1,MULTIVITAMIN,UNCODED,PROPHYLAXIS OR NON-THERAPEUTIC USE,UNCODED,,TABLET,QD,ORAL,SCREENING 1,22-DEC-2012,1971,,Y
CDISCPILOT01,701,1341,1,MULTIVITAMIN,UNCODED,PROPHYLAXIS OR NON-THERAPEUTIC USE,UNCODED,,TABLET,QD,ORAL,SCREENING 2,03-JAN-2013,1971,,Y
CDISCPILOT01,701,1341,1,MULTIVITAMIN,UNCODED,PROPHYLAXIS OR NON-THERAPEUTIC USE,UNCODED,,TABLET,QD,ORAL,BASELINE,05-JAN-2013,1971,,Y
CDISCPILOT01,701,1341,1,MULTIVITAMIN,UNCODED,PROPHYLAXIS OR NON-THERAPEUTIC USE,UNCODED,,TABLET,QD,ORAL,WEEK 2,18-JAN-2013,1971,,Y
CDISCPILOT01,701,1341,1,MULTIVITAMIN,UNCODED,PROPHYLAXIS OR NON-THERAPEUTIC USE,UNCODED,,TABLET,QD,ORAL,WEEK 4,07-FEB-2013,1971,,Y
CDISCPILOT01,701,1341,1,MULTIVITAMIN,UNCODED,PROPHYLAXIS OR NON-THERAPEUTIC USE,UNCODED,,TABLET,QD,ORAL,AE FOLLOW-UP,21-FEB-2013,1971,,Y
CDISCPILOT01,701,1341,2,HYDROCORTISONE,HYDROCORTISONE,,"SYSTEMIC HORMONAL PREPARATIONS, EXCL.",1,VIAL,PRN,TOPICAL,WEEK 4,07-FEB-2013,26-JAN-2013,30-JAN-2013,N
CDISCPILOT01,701,1345,1,VITAMIN C,UNCODED,PROPHYLAXIS OR NON-THERAPEUTIC USE,UNCODED,500,mg,QD,ORAL,SCREENING 1,01-OCT-2013,1983,,Y
CDISCPILOT01,701,1345,1,VITAMIN C,UNCODED,PROPHYLAXIS OR NON-THERAPEUTIC USE,UNCODED,500,mg,QD,ORAL,SCREENING 2,06-OCT-2013,1983,,Y
CDISCPILOT01,701,1345,1,VITAMIN C,UNCODED,PROPHYLAXIS OR NON-THERAPEUTIC USE,UNCODED,500,mg,QD,ORAL,BASELINE,08-OCT-2013,1983,,Y
CDISCPILOT01,701,1345,1,VITAMIN C,UNCODED,PROPHYLAXIS OR NON-THERAPEUTIC USE,UNCODED,500,mg,QD,ORAL,WEEK 2,24-OCT-2013,1983,,Y
CDISCPILOT01,701,1345,1,VITAMIN C,UNCODED,PROPHYLAXIS OR NON-THERAPEUTIC USE,UNCODED,500,mg,QD,ORAL,WEEK 4,08-NOV-2013,1983,,Y
CDISCPILOT01,701,1345,1,VITAMIN C,UNCODED,PROPHYLAXIS OR NON-THERAPEUTIC USE,UNCODED,500,mg,QD,ORAL,AMBUL ECG REMOVAL,10-NOV-2013,1983,,Y
CDISCPILOT01,701,1345,1,VITAMIN C,UNCODED,PROPHYLAXIS OR NON-THERAPEUTIC USE,UNCODED,500,mg,QD,ORAL,WEEK 6,19-NOV-2013,1983,,Y
CDISCPILOT01,701,1345,1,VITAMIN C,UNCODED,PROPHYLAXIS OR NON-THERAPEUTIC USE,UNCODED,500,mg,QD,ORAL,WEEK 8,03-DEC-2013,1983,,Y
CDISCPILOT01,701,1345,1,VITAMIN C,UNCODED,PROPHYLAXIS OR NON-THERAPEUTIC USE,UNCODED,500,mg,QD,ORAL,WEEK 12,31-DEC-2013,1983,,Y
CDISCPILOT01,701,1345,1,VITAMIN C,UNCODED,PROPHYLAXIS OR NON-THERAPEUTIC USE,UNCODED,500,mg,QD,ORAL,WEEK 16,27-JAN-2014,1983,,Y
CDISCPILOT01,701,1345,1,VITAMIN C,UNCODED,PROPHYLAXIS OR NON-THERAPEUTIC USE,UNCODED,500,mg,QD,ORAL,WEEK 20,25-FEB-2014,1983,,Y
CDISCPILOT01,701,1345,1,VITAMIN C,UNCODED,PROPHYLAXIS OR NON-THERAPEUTIC USE,UNCODED,500,mg,QD,ORAL,WEEK 24,18-MAR-2014,1983,,Y
CDISCPILOT01,701,1345,2,VITAMIN E,UNCODED,PROPHYLAXIS OR NON-THERAPEUTIC USE,UNCODED,400,IU,QD,ORAL,SCREENING 1,01-OCT-2013,1983,,Y
CDISCPILOT01,701,1345,2,VITAMIN E,UNCODED,PROPHYLAXIS OR NON-THERAPEUTIC USE,UNCODED,400,IU,QD,ORAL,SCREENING 2,06-OCT-2013,1983,,Y
CDISCPILOT01,701,1345,2,VITAMIN E,UNCODED,PROPHYLAXIS OR NON-THERAPEUTIC USE,UNCODED,400,IU,QD,ORAL,BASELINE,08-OCT-2013,1983,,Y
CDISCPILOT01,701,1345,2,VITAMIN E,UNCODED,PROPHYLAXIS OR NON-THERAPEUTIC USE,UNCODED,400,IU,QD,ORAL,WEEK 2,24-OCT-2013,1983,,Y
CDISCPILOT01,701,1345,2,VITAMIN E,UNCODED,PROPHYLAXIS OR NON-THERAPEUTIC USE,UNCODED,400,IU,QD,ORAL,WEEK 4,08-NOV-2013,1983,,Y
CDISCPILOT01,701,1345,2,VITAMIN E,UNCODED,PROPHYLAXIS OR NON-THERAPEUTIC USE,UNCODED,400,IU,QD,ORAL,AMBUL ECG REMOVAL,10-NOV-2013,1983,,Y
CDISCPILOT01,701,1345,2,VITAMIN E,UNCODED,PROPHYLAXIS OR NON-THERAPEUTIC USE,UNCODED,400,IU,QD,ORAL,WEEK 6,19-NOV-2013,1983,,Y
CDISCPILOT01,701,1345,2,VITAMIN E,UNCODED,PROPHYLAXIS OR NON-THERAPEUTIC USE,UNCODED,400,IU,QD,ORAL,WEEK 8,03-DEC-2013,1983,,Y
CDISCPILOT01,701,1345,2,VITAMIN E,UNCODED,PROPHYLAXIS OR NON-THERAPEUTIC USE,UNCODED,400,IU,QD,ORAL,WEEK 12,31-DEC-2013,1983,,Y
CDISCPILOT01,701,1345,2,VITAMIN E,UNCODED,PROPHYLAXIS OR NON-THERAPEUTIC USE,UNCODED,400,IU,QD,ORAL,WEEK 16,27-JAN-2014,1983,,Y
CDISCPILOT01,701,1345,2,VITAMIN E,UNCODED,PROPHYLAXIS OR NON-THERAPEUTIC USE,UNCODED,400,IU,QD,ORAL,WEEK 20,25-FEB-2014,1983,,Y
CDISCPILOT01,701,1345,2,VITAMIN E,UNCODED,PROPHYLAXIS OR NON-THERAPEUTIC USE,UNCODED,400,IU,QD,ORAL,WEEK 24,18-MAR-2014,1983,,Y
CDISCPILOT01,701,1360,1,DIPROLENE CREAM,UNCODED,,UNCODED,1,VIAL,QD,TOPICAL,SCREENING 1,24-JUL-2013,1986,,Y
CDISCPILOT01,701,1360,1,DIPROLENE CREAM,UNCODED,,UNCODED,1,VIAL,QD,TOPICAL,SCREENING 2,29-JUL-2013,1986,,Y
CDISCPILOT01,701,1360,1,DIPROLENE CREAM,UNCODED,,UNCODED,1,VIAL,QD,TOPICAL,BASELINE,31-JUL-2013,1986,,Y
CDISCPILOT01,701,1360,1,DIPROLENE CREAM,UNCODED,,UNCODED,1,VIAL,QD,TOPICAL,WEEK 2,14-AUG-2013,1986,,Y
CDISCPILOT01,701,1360,1,DIPROLENE CREAM,UNCODED,,UNCODED,1,VIAL,QD,TOPICAL,AE FOLLOW-UP,09-SEP-2013,1986,,Y
CDISCPILOT01,701,1360,1,DIPROLENE CREAM,UNCODED,,UNCODED,1,VIAL,QD,TOPICAL,RETRIEVAL,11-FEB-2014,1986,,Y
CDISCPILOT01,701,1360,2,TYLENOL EXTRA STRENGTH,UNCODED,,UNCODED,2,TABLET,PRN,ORAL,SCREENING 1,24-JUL-2013,1996,,Y
CDISCPILOT01,701,1360,2,TYLENOL EXTRA STRENGTH,UNCODED,,UNCODED,2,TABLET,PRN,ORAL,SCREENING 2,29-JUL-2013,1996,,Y
CDISCPILOT01,701,1360,2,TYLENOL EXTRA STRENGTH,UNCODED,,UNCODED,2,TABLET,PRN,ORAL,BASELINE,31-JUL-2013,1996,,Y
CDISCPILOT01,701,1360,2,TYLENOL EXTRA STRENGTH,UNCODED,,UNCODED,2,TABLET,PRN,ORAL,WEEK 2,14-AUG-2013,1996,,Y
CDISCPILOT01,701,1360,2,TYLENOL EXTRA STRENGTH,UNCODED,,UNCODED,2,TABLET,PRN,ORAL,AE FOLLOW-UP,09-SEP-2013,1996,,Y
CDISCPILOT01,701,1360,2,TYLENOL EXTRA STRENGTH,UNCODED,,UNCODED,2,TABLET,PRN,ORAL,RETRIEVAL,11-FEB-2014,1996,,Y
CDISCPILOT01,701,1360,3,"HYDROCORTISONE, TOPICAL",UNCODED,,UNCODED,1,VIAL,PRN,TOPICAL,WEEK 2,14-AUG-2013,04-AUG-2013,12-AUG-2013,N
CDISCPILOT01,701,1360,4,GENERAL ANESTHESIA,UNCODED,PROPHYLAXIS OR NON-THERAPEUTIC USE,UNCODED,,,ONCE,INTRAVENOUS,AE FOLLOW-UP,09-SEP-2013,27-AUG-2013,27-AUG-2013,N
CDISCPILOT01,701,1360,5,HYDROCODONE,UNCODED,PROPHYLAXIS OR NON-THERAPEUTIC USE,UNCODED,1,TABLET,Q3H,ORAL,AE FOLLOW-UP,09-SEP-2013,27-AUG-2013,27-SEP-2013,N
CDISCPILOT01,701,1360,5,HYDROCODONE,UNCODED,PROPHYLAXIS OR NON-THERAPEUTIC USE,UNCODED,1,TABLET,Q3H,ORAL,RETRIEVAL,11-FEB-2014,27-AUG-2013,27-SEP-2013,N
CDISCPILOT01,701,1363,1,ASA,UNCODED,,UNCODED,650,mg,PRN,ORAL,SCREENING 1,20-MAY-2013,1986,,Y
CDISCPILOT01,701,1363,1,ASA,UNCODED,,UNCODED,650,mg,PRN,ORAL,SCREENING 2,28-MAY-2013,1986,,Y
CDISCPILOT01,701,1363,1,ASA,UNCODED,,UNCODED,650,mg,PRN,ORAL,BASELINE,30-MAY-2013,1986,,Y
CDISCPILOT01,701,1363,1,ASA,UNCODED,,UNCODED,650,mg,PRN,ORAL,WEEK 2,12-JUN-2013,1986,,Y
CDISCPILOT01,701,1363,1,ASA,UNCODED,,UNCODED,650,mg,PRN,ORAL,WEEK 4,25-JUN-2013,1986,,Y
CDISCPILOT01,701,1363,1,ASA,UNCODED,,UNCODED,650,mg,PRN,ORAL,AMBUL ECG REMOVAL,27-JUN-2013,1986,,Y
CDISCPILOT01,701,1363,1,ASA,UNCODED,,UNCODED,650,mg,PRN,ORAL,WEEK 6,10-JUL-2013,1986,,Y
CDISCPILOT01,701,1363,1,ASA,UNCODED,,UNCODED,650,mg,PRN,ORAL,WEEK 8,24-JUL-2013,1986,,Y
CDISCPILOT01,701,1363,1,ASA,UNCODED,,UNCODED,650,mg,PRN,ORAL,WEEK 12,21-AUG-2013,1986,,Y
CDISCPILOT01,701,1363,1,ASA,UNCODED,,UNCODED,650,mg,PRN,ORAL,WEEK 16,18-SEP-2013,1986,,Y
CDISCPILOT01,701,1363,1,ASA,UNCODED,,UNCODED,650,mg,PRN,ORAL,WEEK 20,14-OCT-2013,1986,,Y
CDISCPILOT01,701,1363,1,ASA,UNCODED,,UNCODED,650,mg,PRN,ORAL,WEEK 24,13-NOV-2013,1986,,Y
CDISCPILOT01,701,1363,1,ASA,UNCODED,,UNCODED,650,mg,PRN,ORAL,WEEK 26,27-NOV-2013,1986,,Y
CDISCPILOT01,701,1363,2,MAALOX,ALGELDRATE,,ALIMENTARY TRACT AND METABOLISM,3,tsp,PRN,ORAL,SCREENING 1,20-MAY-2013,2011,,Y
CDISCPILOT01,701,1363,2,MAALOX,ALGELDRATE,,ALIMENTARY TRACT AND METABOLISM,3,tsp,PRN,ORAL,SCREENING 2,28-MAY-2013,2011,,Y
CDISCPILOT01,701,1363,2,MAALOX,ALGELDRATE,,ALIMENTARY TRACT AND METABOLISM,3,tsp,PRN,ORAL,BASELINE,30-MAY-2013,2011,,Y
CDISCPILOT01,701,1363,2,MAALOX,ALGELDRATE,,ALIMENTARY TRACT AND METABOLISM,3,tsp,PRN,ORAL,WEEK 2,12-JUN-2013,2011,,Y
CDISCPILOT01,701,1363,2,MAALOX,ALGELDRATE,,ALIMENTARY TRACT AND METABOLISM,3,tsp,PRN,ORAL,WEEK 4,25-JUN-2013,2011,,Y
CDISCPILOT01,701,1363,2,MAALOX,ALGELDRATE,,ALIMENTARY TRACT AND METABOLISM,3,tsp,PRN,ORAL,AMBUL ECG REMOVAL,27-JUN-2013,2011,,Y
CDISCPILOT01,701,1363,2,MAALOX,ALGELDRATE,,ALIMENTARY TRACT AND METABOLISM,3,tsp,PRN,ORAL,WEEK 6,10-JUL-2013,2011,,Y
CDISCPILOT01,701,1363,2,MAALOX,ALGELDRATE,,ALIMENTARY TRACT AND METABOLISM,3,tsp,PRN,ORAL,WEEK 8,24-JUL-2013,2011,,Y
CDISCPILOT01,701,1363,2,MAALOX,ALGELDRATE,,ALIMENTARY TRACT AND METABOLISM,3,tsp,PRN,ORAL,WEEK 12,21-AUG-2013,2011,,Y
CDISCPILOT01,701,1363,2,MAALOX,ALGELDRATE,,ALIMENTARY TRACT AND METABOLISM,3,tsp,PRN,ORAL,WEEK 16,18-SEP-2013,2011,,Y
CDISCPILOT01,701,1363,2,MAALOX,ALGELDRATE,,ALIMENTARY TRACT AND METABOLISM,3,tsp,PRN,ORAL,WEEK 20,14-OCT-2013,2011,,Y
CDISCPILOT01,701,1363,2,MAALOX,ALGELDRATE,,ALIMENTARY TRACT AND METABOLISM,3,tsp,PRN,ORAL,WEEK 24,13-NOV-2013,2011,,Y
CDISCPILOT01,701,1363,2,MAALOX,ALGELDRATE,,ALIMENTARY TRACT AND METABOLISM,3,tsp,PRN,ORAL,WEEK 26,27-NOV-2013,2011,,Y
CDISCPILOT01,701,1363,3,MULTIVITAMIN,UNCODED,PROPHYLAXIS OR NON-THERAPEUTIC USE,UNCODED,1,TABLET,QD,ORAL,WEEK 16,18-SEP-2013,22-AUG-2013,,Y
CDISCPILOT01,701,1363,3,MULTIVITAMIN,UNCODED,PROPHYLAXIS OR NON-THERAPEUTIC USE,UNCODED,1,TABLET,QD,ORAL,WEEK 20,14-OCT-2013,22-AUG-2013,,Y
CDISCPILOT01,701,1363,3,MULTIVITAMIN,UNCODED,PROPHYLAXIS OR NON-THERAPEUTIC USE,UNCODED,1,TABLET,QD,ORAL,WEEK 24,13-NOV-2013,22-AUG-2013,,Y
CDISCPILOT01,701,1363,3,MULTIVITAMIN,UNCODED,PROPHYLAXIS OR NON-THERAPEUTIC USE,UNCODED,1,TABLET,QD,ORAL,WEEK 26,27-NOV-2013,22-AUG-2013,,Y
CDISCPILOT01,701,1363,4,HYDROCORTISONE,HYDROCORTISONE,,"SYSTEMIC HORMONAL PREPARATIONS, EXCL.",1,VIAL,QD,TOPICAL,WEEK 20,14-OCT-2013,19-SEP-2013,,Y
CDISCPILOT01,701,1363,4,HYDROCORTISONE,HYDROCORTISONE,,"SYSTEMIC HORMONAL PREPARATIONS, EXCL.",1,VIAL,QD,TOPICAL,WEEK 24,13-NOV-2013,19-SEP-2013,,Y
CDISCPILOT01,701,1363,4,HYDROCORTISONE,HYDROCORTISONE,,"SYSTEMIC HORMONAL PREPARATIONS, EXCL.",1,VIAL,QD,TOPICAL,WEEK 26,27-NOV-2013,19-SEP-2013,,Y
CDISCPILOT01,701,1363,5,ICY HOT,UNCODED,,UNCODED,1,VIAL,PRN,TOPICAL,WEEK 20,14-OCT-2013,13-OCT-2013,,Y
CDISCPILOT01,701,1363,5,ICY HOT,UNCODED,,UNCODED,1,VIAL,PRN,TOPICAL,WEEK 24,13-NOV-2013,13-OCT-2013,,Y
CDISCPILOT01,701,1363,5,ICY HOT,UNCODED,,UNCODED,1,VIAL,PRN,TOPICAL,WEEK 26,27-NOV-2013,13-OCT-2013,,Y
CDISCPILOT01,701,1363,6,MOTRIN,UNCODED,,UNCODED,400,mg,PRN,ORAL,WEEK 20,14-OCT-2013,01-OCT-2013,01-OCT-2013,N
CDISCPILOT01,701,1383,1,CENTRUM SILVER,UNCODED,PROPHYLAXIS OR NON-THERAPEUTIC USE,UNCODED,1,TABLET,QD,ORAL,SCREENING 1,22-JAN-2013,MAR-2012,,Y
CDISCPILOT01,701,1383,1,CENTRUM SILVER,UNCODED,PROPHYLAXIS OR NON-THERAPEUTIC USE,UNCODED,1,TABLET,QD,ORAL,SCREENING 2,02-FEB-2013,MAR-2012,,Y
CDISCPILOT01,701,1383,1,CENTRUM SILVER,UNCODED,PROPHYLAXIS OR NON-THERAPEUTIC USE,UNCODED,1,TABLET,QD,ORAL,BASELINE,04-FEB-2013,MAR-2012,,Y
CDISCPILOT01,701,1383,1,CENTRUM SILVER,UNCODED,PROPHYLAXIS OR NON-THERAPEUTIC USE,UNCODED,1,TABLET,QD,ORAL,WEEK 2,19-FEB-2013,MAR-2012,,Y
CDISCPILOT01,701,1383,1,CENTRUM SILVER,UNCODED,PROPHYLAXIS OR NON-THERAPEUTIC USE,UNCODED,1,TABLET,QD,ORAL,WEEK 4,12-MAR-2013,MAR-2012,,Y
CDISCPILOT01,701,1383,1,CENTRUM SILVER,UNCODED,PROPHYLAXIS OR NON-THERAPEUTIC USE,UNCODED,1,TABLET,QD,ORAL,AMBUL ECG REMOVAL,14-MAR-2013,MAR-2012,,Y
CDISCPILOT01,701,1383,1,CENTRUM SILVER,UNCODED,PROPHYLAXIS OR NON-THERAPEUTIC USE,UNCODED,1,TABLET,QD,ORAL,WEEK 6,19-MAR-2013,MAR-2012,,Y
CDISCPILOT01,701,1383,1,CENTRUM SILVER,UNCODED,PROPHYLAXIS OR NON-THERAPEUTIC USE,UNCODED,1,TABLET,QD,ORAL,WEEK 8,02-APR-2013,MAR-2012,,Y
CDISCPILOT01,701,1383,1,CENTRUM SILVER,UNCODED,PROPHYLAXIS OR NON-THERAPEUTIC USE,UNCODED,1,TABLET,QD,ORAL,WEEK 12,30-APR-2013,MAR-2012,,Y
CDISCPILOT01,701,1383,1,CENTRUM SILVER,UNCODED,PROPHYLAXIS OR NON-THERAPEUTIC USE,UNCODED,1,TABLET,QD,ORAL,WEEK 16,30-MAY-2013,MAR-2012,,Y
CDISCPILOT01,701,1383,1,CENTRUM SILVER,UNCODED,PROPHYLAXIS OR NON-THERAPEUTIC USE,UNCODED,1,TABLET,QD,ORAL,WEEK 20,25-JUN-2013,MAR-2012,,Y
CDISCPILOT01,701,1383,1,CENTRUM SILVER,UNCODED,PROPHYLAXIS OR NON-THERAPEUTIC USE,UNCODED,1,TABLET,QD,ORAL,WEEK 24,30-JUL-2013,MAR-2012,,Y
CDISCPILOT01,701,1383,1,CENTRUM SILVER,UNCODED,PROPHYLAXIS OR NON-THERAPEUTIC USE,UNCODED,1,TABLET,QD,ORAL,WEEK 26,06-AUG-2013,MAR-2012,,Y
CDISCPILOT01,701,1383,2,HYDROCORTISONE,HYDROCORTISONE,,"SYSTEMIC HORMONAL PREPARATIONS, EXCL.",1,VIAL,PRN,TOPICAL,WEEK 16,30-MAY-2013,14-MAY-2013,,Y
CDISCPILOT01,701,1383,2,HYDROCORTISONE,HYDROCORTISONE,,"SYSTEMIC HORMONAL PREPARATIONS, EXCL.",1,VIAL,PRN,TOPICAL,WEEK 20,25-JUN-2013,14-MAY-2013,,Y
CDISCPILOT01,701,1383,2,HYDROCORTISONE,HYDROCORTISONE,,"SYSTEMIC HORMONAL PREPARATIONS, EXCL.",1,VIAL,PRN,TOPICAL,WEEK 24,30-JUL-2013,14-MAY-2013,,Y
CDISCPILOT01,701,1383,2,HYDROCORTISONE,HYDROCORTISONE,,"SYSTEMIC HORMONAL PREPARATIONS, EXCL.",1,VIAL,PRN,TOPICAL,WEEK 26,06-AUG-2013,14-MAY-2013,,Y
CDISCPILOT01,701,1383,3,PROMETHAZINE HCL W/CODEINE,UNCODED,,UNCODED,2,tsp,Q6H,ORAL,WEEK 24,30-JUL-2013,19-JUL-2013,25-JUL-2013,N
CDISCPILOT01,701,1383,4,CEPHALEXIN,UNCODED,,UNCODED,500,mg,QID,ORAL,WEEK 24,30-JUL-2013,19-JUL-2013,01-AUG-2013,N
CDISCPILOT01,701,1383,4,CEPHALEXIN,UNCODED,,UNCODED,500,mg,QID,ORAL,WEEK 26,06-AUG-2013,19-JUL-2013,01-AUG-2013,N
CDISCPILOT01,701,1387,1,ECOTRIN,UNCODED,,UNCODED,1,TABLET,PRN,ORAL,SCREENING 1,23-FEB-2014,2012,,Y
CDISCPILOT01,701,1387,1,ECOTRIN,UNCODED,,UNCODED,1,TABLET,PRN,ORAL,SCREENING 2,08-MAR-2014,2012,,Y
CDISCPILOT01,701,1387,1,ECOTRIN,UNCODED,,UNCODED,1,TABLET,PRN,ORAL,BASELINE,12-MAR-2014,2012,,Y
CDISCPILOT01,701,1387,1,ECOTRIN,UNCODED,,UNCODED,1,TABLET,PRN,ORAL,WEEK 2,25-MAR-2014,2012,,Y
CDISCPILOT01,701,1387,1,ECOTRIN,UNCODED,,UNCODED,1,TABLET,PRN,ORAL,RETRIEVAL,27-AUG-2014,2012,,Y
CDISCPILOT01,701,1392,1,HYDROCHLOROTHIAZIDE,UNCODED,,UNCODED,25,mg,QD,ORAL,SCREENING 1,17-OCT-2012,2008,,Y
CDISCPILOT01,701,1392,1,HYDROCHLOROTHIAZIDE,UNCODED,,UNCODED,25,mg,QD,ORAL,SCREENING 2,26-OCT-2012,2008,,Y
CDISCPILOT01,701,1392,1,HYDROCHLOROTHIAZIDE,UNCODED,,UNCODED,25,mg,QD,ORAL,BASELINE,28-OCT-2012,2008,,Y
CDISCPILOT01,701,1392,1,HYDROCHLOROTHIAZIDE,UNCODED,,UNCODED,25,mg,QD,ORAL,WEEK 2,11-NOV-2012,2008,,Y
CDISCPILOT01,701,1392,1,HYDROCHLOROTHIAZIDE,UNCODED,,UNCODED,25,mg,QD,ORAL,WEEK 4,24-NOV-2012,2008,,Y
CDISCPILOT01,701,1392,1,HYDROCHLOROTHIAZIDE,UNCODED,,UNCODED,25,mg,QD,ORAL,AMBUL ECG REMOVAL,26-NOV-2012,2008,,Y
CDISCPILOT01,701,1392,1,HYDROCHLOROTHIAZIDE,UNCODED,,UNCODED,25,mg,QD,ORAL,WEEK 6,09-DEC-2012,2008,,Y
CDISCPILOT01,701,1392,1,HYDROCHLOROTHIAZIDE,UNCODED,,UNCODED,25,mg,QD,ORAL,WEEK 8,20-DEC-2012,2008,,Y
CDISCPILOT01,701,1392,1,HYDROCHLOROTHIAZIDE,UNCODED,,UNCODED,25,mg,QD,ORAL,WEEK 12,20-JAN-2013,2008,,Y
CDISCPILOT01,701,1392,1,HYDROCHLOROTHIAZIDE,UNCODED,,UNCODED,25,mg,QD,ORAL,WEEK 16,17-FEB-2013,2008,,Y
CDISCPILOT01,701,1392,1,HYDROCHLOROTHIAZIDE,UNCODED,,UNCODED,25,mg,QD,ORAL,WEEK 20,17-MAR-2013,2008,,Y
CDISCPILOT01,701,1392,1,HYDROCHLOROTHIAZIDE,UNCODED,,UNCODED,25,mg,QD,ORAL,WEEK 24,15-APR-2013,2008,,Y
CDISCPILOT01,701,1392,1,HYDROCHLOROTHIAZIDE,UNCODED,,UNCODED,25,mg,QD,ORAL,WEEK 26,28-APR-2013,2008,,Y
CDISCPILOT01,701,1392,2,VITAMIN D,UNCODED,PROPHYLAXIS OR NON-THERAPEUTIC USE,UNCODED,1,TABLET,QD,ORAL,SCREENING 1,17-OCT-2012,2011,,Y
CDISCPILOT01,701,1392,2,VITAMIN D,UNCODED,PROPHYLAXIS OR NON-THERAPEUTIC USE,UNCODED,1,TABLET,QD,ORAL,SCREENING 2,26-OCT-2012,2011,,Y
CDISCPILOT01,701,1392,2,VITAMIN D,UNCODED,PROPHYLAXIS OR NON-THERAPEUTIC USE,UNCODED,1,TABLET,QD,ORAL,BASELINE,28-OCT-2012,2011,,Y
CDISCPILOT01,701,1392,2,VITAMIN D,UNCODED,PROPHYLAXIS OR NON-THERAPEUTIC USE,UNCODED,1,TABLET,QD,ORAL,WEEK 2,11-NOV-2012,2011,,Y
CDISCPILOT01,701,1392,2,VITAMIN D,UNCODED,PROPHYLAXIS OR NON-THERAPEUTIC USE,UNCODED,1,TABLET,QD,ORAL,WEEK 4,24-NOV-2012,2011,,Y
CDISCPILOT01,701,1392,2,VITAMIN D,UNCODED,PROPHYLAXIS OR NON-THERAPEUTIC USE,UNCODED,1,TABLET,QD,ORAL,AMBUL ECG REMOVAL,26-NOV-2012,2011,,Y
CDISCPILOT01,701,1392,2,VITAMIN D,UNCODED,PROPHYLAXIS OR NON-THERAPEUTIC USE,UNCODED,1,TABLET,QD,ORAL,WEEK 6,09-DEC-2012,2011,,Y
CDISCPILOT01,701,1392,2,VITAMIN D,UNCODED,PROPHYLAXIS OR NON-THERAPEUTIC USE,UNCODED,1,TABLET,QD,ORAL,WEEK 8,20-DEC-2012,2011,,Y
CDISCPILOT01,701,1392,2,VITAMIN D,UNCODED,PROPHYLAXIS OR NON-THERAPEUTIC USE,UNCODED,1,TABLET,QD,ORAL,WEEK 12,20-JAN-2013,2011,,Y
CDISCPILOT01,701,1392,2,VITAMIN D,UNCODED,PROPHYLAXIS OR NON-THERAPEUTIC USE,UNCODED,1,TABLET,QD,ORAL,WEEK 16,17-FEB-2013,2011,,Y
CDISCPILOT01,701,1392,2,VITAMIN D,UNCODED,PROPHYLAXIS OR NON-THERAPEUTIC USE,UNCODED,1,TABLET,QD,ORAL,WEEK 20,17-MAR-2013,2011,,Y
CDISCPILOT01,701,1392,2,VITAMIN D,UNCODED,PROPHYLAXIS OR NON-THERAPEUTIC USE,UNCODED,1,TABLET,QD,ORAL,WEEK 24,15-APR-2013,2011,,Y
CDISCPILOT01,701,1392,2,VITAMIN D,UNCODED,PROPHYLAXIS OR NON-THERAPEUTIC USE,UNCODED,1,TABLET,QD,ORAL,WEEK 26,28-APR-2013,2011,,Y
CDISCPILOT01,701,1392,3,VITAMIN E,UNCODED,PROPHYLAXIS OR NON-THERAPEUTIC USE,UNCODED,1,TABLET,QD,ORAL,SCREENING 1,17-OCT-2012,2011,,Y
CDISCPILOT01,701,1392,3,VITAMIN E,UNCODED,PROPHYLAXIS OR NON-THERAPEUTIC USE,UNCODED,1,TABLET,QD,ORAL,SCREENING 2,26-OCT-2012,2011,,Y
CDISCPILOT01,701,1392,3,VITAMIN E,UNCODED,PROPHYLAXIS OR NON-THERAPEUTIC USE,UNCODED,1,TABLET,QD,ORAL,BASELINE,28-OCT-2012,2011,,Y
CDISCPILOT01,701,1392,3,VITAMIN E,UNCODED,PROPHYLAXIS OR NON-THERAPEUTIC USE,UNCODED,1,TABLET,QD,ORAL,WEEK 2,11-NOV-2012,2011,,Y
CDISCPILOT01,701,1392,3,VITAMIN E,UNCODED,PROPHYLAXIS OR NON-THERAPEUTIC USE,UNCODED,1,TABLET,QD,ORAL,WEEK 4,24-NOV-2012,2011,,Y
CDISCPILOT01,701,1392,3,VITAMIN E,UNCODED,PROPHYLAXIS OR NON-THERAPEUTIC USE,UNCODED,1,TABLET,QD,ORAL,AMBUL ECG REMOVAL,26-NOV-2012,2011,,Y
CDISCPILOT01,701,1392,3,VITAMIN E,UNCODED,PROPHYLAXIS OR NON-THERAPEUTIC USE,UNCODED,1,TABLET,QD,ORAL,WEEK 6,09-DEC-2012,2011,,Y
CDISCPILOT01,701,1392,3,VITAMIN E,UNCODED,PROPHYLAXIS OR NON-THERAPEUTIC USE,UNCODED,1,TABLET,QD,ORAL,WEEK 8,20-DEC-2012,2011,,Y
CDISCPILOT01,701,1392,3,VITAMIN E,UNCODED,PROPHYLAXIS OR NON-THERAPEUTIC USE,UNCODED,1,TABLET,QD,ORAL,WEEK 12,20-JAN-2013,2011,,Y
CDISCPILOT01,701,1392,3,VITAMIN E,UNCODED,PROPHYLAXIS OR NON-THERAPEUTIC USE,UNCODED,1,TABLET,QD,ORAL,WEEK 16,17-FEB-2013,2011,,Y
CDISCPILOT01,701,1392,3,VITAMIN E,UNCODED,PROPHYLAXIS OR NON-THERAPEUTIC USE,UNCODED,1,TABLET,QD,ORAL,WEEK 20,17-MAR-2013,2011,,Y
CDISCPILOT01,701,1392,3,VITAMIN E,UNCODED,PROPHYLAXIS OR NON-THERAPEUTIC USE,UNCODED,1,TABLET,QD,ORAL,WEEK 24,15-APR-2013,2011,,Y
CDISCPILOT01,701,1392,3,VITAMIN E,UNCODED,PROPHYLAXIS OR NON-THERAPEUTIC USE,UNCODED,1,TABLET,QD,ORAL,WEEK 26,28-APR-2013,2011,,Y
CDISCPILOT01,701,1392,4,ZESTRIL,UNCODED,,UNCODED,5,mg,QD,ORAL,SCREENING 1,17-OCT-2012,17-MAR-2011,,Y
CDISCPILOT01,701,1392,4,ZESTRIL,UNCODED,,UNCODED,5,mg,QD,ORAL,SCREENING 2,26-OCT-2012,17-MAR-2011,,Y
CDISCPILOT01,701,1392,4,ZESTRIL,UNCODED,,UNCODED,5,mg,QD,ORAL,BASELINE,28-OCT-2012,17-MAR-2011,,Y
CDISCPILOT01,701,1392,4,ZESTRIL,UNCODED,,UNCODED,5,mg,QD,ORAL,WEEK 2,11-NOV-2012,17-MAR-2011,,Y
CDISCPILOT01,701,1392,4,ZESTRIL,UNCODED,,UNCODED,5,mg,QD,ORAL,WEEK 4,24-NOV-2012,17-MAR-2011,,Y
CDISCPILOT01,701,1392,4,ZESTRIL,UNCODED,,UNCODED,5,mg,QD,ORAL,AMBUL ECG REMOVAL,26-NOV-2012,17-MAR-2011,,Y
CDISCPILOT01,701,1392,4,ZESTRIL,UNCODED,,UNCODED,5,mg,QD,ORAL,WEEK 6,09-DEC-2012,17-MAR-2011,,Y
CDISCPILOT01,701,1392,4,ZESTRIL,UNCODED,,UNCODED,5,mg,QD,ORAL,WEEK 8,20-DEC-2012,17-MAR-2011,,Y
CDISCPILOT01,701,1392,4,ZESTRIL,UNCODED,,UNCODED,5,mg,QD,ORAL,WEEK 12,20-JAN-2013,17-MAR-2011,,Y
CDISCPILOT01,701,1392,4,ZESTRIL,UNCODED,,UNCODED,5,mg,QD,ORAL,WEEK 16,17-FEB-2013,17-MAR-2011,,Y
CDISCPILOT01,701,1392,4,ZESTRIL,UNCODED,,UNCODED,5,mg,QD,ORAL,WEEK 20,17-MAR-2013,17-MAR-2011,,Y
CDISCPILOT01,701,1392,4,ZESTRIL,UNCODED,,UNCODED,5,mg,QD,ORAL,WEEK 24,15-APR-2013,17-MAR-2011,,Y
CDISCPILOT01,701,1392,4,ZESTRIL,UNCODED,,UNCODED,5,mg,QD,ORAL,WEEK 26,28-APR-2013,17-MAR-2011,,Y
CDISCPILOT01,701,1415,1,AMPICILLIN,UNCODED,,UNCODED,250,mg,TID,ORAL,SCREENING 1,15-SEP-2013,12-AUG-2013,22-AUG-2013,N
CDISCPILOT01,701,1415,2,MOTRIN,UNCODED,,UNCODED,400,mg,PRN,ORAL,SCREENING 1,15-SEP-2013,2007,,Y
CDISCPILOT01,701,1415,2,MOTRIN,UNCODED,,UNCODED,400,mg,PRN,ORAL,SCREENING 2,21-SEP-2013,2007,,Y
CDISCPILOT01,701,1415,2,MOTRIN,UNCODED,,UNCODED,400,mg,PRN,ORAL,BASELINE,23-SEP-2013,2007,,Y
CDISCPILOT01,701,1415,2,MOTRIN,UNCODED,,UNCODED,400,mg,PRN,ORAL,WEEK 2,07-OCT-2013,2007,,Y
CDISCPILOT01,701,1415,2,MOTRIN,UNCODED,,UNCODED,400,mg,PRN,ORAL,WEEK 4,20-OCT-2013,2007,,Y
CDISCPILOT01,701,1415,2,MOTRIN,UNCODED,,UNCODED,400,mg,PRN,ORAL,AMBUL ECG REMOVAL,22-OCT-2013,2007,,Y
CDISCPILOT01,701,1415,2,MOTRIN,UNCODED,,UNCODED,400,mg,PRN,ORAL,WEEK 6,04-NOV-2013,2007,,Y
CDISCPILOT01,701,1415,2,MOTRIN,UNCODED,,UNCODED,400,mg,PRN,ORAL,WEEK 8,21-NOV-2013,2007,,Y
CDISCPILOT01,701,1415,2,MOTRIN,UNCODED,,UNCODED,400,mg,PRN,ORAL,WEEK 12,21-DEC-2013,2007,,Y
CDISCPILOT01,701,1415,2,MOTRIN,UNCODED,,UNCODED,400,mg,PRN,ORAL,WEEK 16,14-JAN-2014,2007,,Y
CDISCPILOT01,701,1415,2,MOTRIN,UNCODED,,UNCODED,400,mg,PRN,ORAL,WEEK 20,10-FEB-2014,2007,,Y
CDISCPILOT01,701,1415,2,MOTRIN,UNCODED,,UNCODED,400,mg,PRN,ORAL,WEEK 24,10-MAR-2014,2007,,Y
CDISCPILOT01,701,1415,2,MOTRIN,UNCODED,,UNCODED,400,mg,PRN,ORAL,WEEK 26,24-MAR-2014,2007,,Y
CDISCPILOT01,701,1415,3,OCUVITE,UNCODED,PROPHYLAXIS OR NON-THERAPEUTIC USE,UNCODED,1,TABLET,BID,ORAL,SCREENING 1,15-SEP-2013,JAN-2012,,Y
CDISCPILOT01,701,1415,3,OCUVITE,UNCODED,PROPHYLAXIS OR NON-THERAPEUTIC USE,UNCODED,1,TABLET,BID,ORAL,SCREENING 2,21-SEP-2013,JAN-2012,,Y
CDISCPILOT01,701,1415,3,OCUVITE,UNCODED,PROPHYLAXIS OR NON-THERAPEUTIC USE,UNCODED,1,TABLET,BID,ORAL,BASELINE,23-SEP-2013,JAN-2012,,Y
CDISCPILOT01,701,1415,3,OCUVITE,UNCODED,PROPHYLAXIS OR NON-THERAPEUTIC USE,UNCODED,1,TABLET,BID,ORAL,WEEK 2,07-OCT-2013,JAN-2012,,Y
CDISCPILOT01,701,1415,3,OCUVITE,UNCODED,PROPHYLAXIS OR NON-THERAPEUTIC USE,UNCODED,1,TABLET,BID,ORAL,WEEK 4,20-OCT-2013,JAN-2012,,Y
CDISCPILOT01,701,1415,3,OCUVITE,UNCODED,PROPHYLAXIS OR NON-THERAPEUTIC USE,UNCODED,1,TABLET,BID,ORAL,AMBUL ECG REMOVAL,22-OCT-2013,JAN-2012,,Y
CDISCPILOT01,701,1415,3,OCUVITE,UNCODED,PROPHYLAXIS OR NON-THERAPEUTIC USE,UNCODED,1,TABLET,BID,ORAL,WEEK 6,04-NOV-2013,JAN-2012,,Y
CDISCPILOT01,701,1415,3,OCUVITE,UNCODED,PROPHYLAXIS OR NON-THERAPEUTIC USE,UNCODED,1,TABLET,BID,ORAL,WEEK 8,21-NOV-2013,JAN-2012,,Y
CDISCPILOT01,701,1415,3,OCUVITE,UNCODED,PROPHYLAXIS OR NON-THERAPEUTIC USE,UNCODED,1,TABLET,BID,ORAL,WEEK 12,21-DEC-2013,JAN-2012,,Y
CDISCPILOT01,701,1415,3,OCUVITE,UNCODED,PROPHYLAXIS OR NON-THERAPEUTIC USE,UNCODED,1,TABLET,BID,ORAL,WEEK 16,14-JAN-2014,JAN-2012,,Y
CDISCPILOT01,701,1415,3,OCUVITE,UNCODED,PROPHYLAXIS OR NON-THERAPEUTIC USE,UNCODED,1,TABLET,BID,ORAL,WEEK 20,10-FEB-2014,JAN-2012,,Y
CDISCPILOT01,701,1415,3,OCUVITE,UNCODED,PROPHYLAXIS OR NON-THERAPEUTIC USE,UNCODED,1,TABLET,BID,ORAL,WEEK 24,10-MAR-2014,JAN-2012,,Y
CDISCPILOT01,701,1415,3,OCUVITE,UNCODED,PROPHYLAXIS OR NON-THERAPEUTIC USE,UNCODED,1,TABLET,BID,ORAL,WEEK 26,24-MAR-2014,JAN-2012,,Y
CDISCPILOT01,701,1415,4,PROMETHAZINE HCL W/CODEINE,UNCODED,,UNCODED,1,tsp,ONCE,ORAL,SCREENING 1,15-SEP-2013,15-AUG-2013,15-AUG-2013,N
CDISCPILOT01,701,1415,5,CEFACLOR,UNCODED,,UNCODED,500,mg,TID,ORAL,WEEK 20,10-FEB-2014,21-JAN-2014,09-FEB-2014,N
CDISCPILOT01,701,1440,1,CENTRAL-VITE,UNCODED,PROPHYLAXIS OR NON-THERAPEUTIC USE,UNCODED,1,TABLET,QD,ORAL,SCREENING 1,24-JUL-2013,JUN-2013,,Y
CDISCPILOT01,701,1440,1,CENTRAL-VITE,UNCODED,PROPHYLAXIS OR NON-THERAPEUTIC USE,UNCODED,1,TABLET,QD,ORAL,SCREENING 2,06-AUG-2013,JUN-2013,,Y
CDISCPILOT01,701,1440,1,CENTRAL-VITE,UNCODED,PROPHYLAXIS OR NON-THERAPEUTIC USE,UNCODED,1,TABLET,QD,ORAL,BASELINE,08-AUG-2013,JUN-2013,,Y
CDISCPILOT01,701,1440,1,CENTRAL-VITE,UNCODED,PROPHYLAXIS OR NON-THERAPEUTIC USE,UNCODED,1,TABLET,QD,ORAL,WEEK 2,23-AUG-2013,JUN-2013,,Y
CDISCPILOT01,701,1440,1,CENTRAL-VITE,UNCODED,PROPHYLAXIS OR NON-THERAPEUTIC USE,UNCODED,1,TABLET,QD,ORAL,WEEK 4,04-SEP-2013,JUN-2013,,Y
CDISCPILOT01,701,1440,1,CENTRAL-VITE,UNCODED,PROPHYLAXIS OR NON-THERAPEUTIC USE,UNCODED,1,TABLET,QD,ORAL,AMBUL ECG REMOVAL,06-SEP-2013,JUN-2013,,Y
CDISCPILOT01,701,1440,1,CENTRAL-VITE,UNCODED,PROPHYLAXIS OR NON-THERAPEUTIC USE,UNCODED,1,TABLET,QD,ORAL,WEEK 6,22-SEP-2013,JUN-2013,,Y
CDISCPILOT01,701,1440,1,CENTRAL-VITE,UNCODED,PROPHYLAXIS OR NON-THERAPEUTIC USE,UNCODED,1,TABLET,QD,ORAL,WEEK 8,03-OCT-2013,JUN-2013,,Y
CDISCPILOT01,701,1440,1,CENTRAL-VITE,UNCODED,PROPHYLAXIS OR NON-THERAPEUTIC USE,UNCODED,1,TABLET,QD,ORAL,WEEK 12,31-OCT-2013,JUN-2013,,Y
CDISCPILOT01,701,1440,1,CENTRAL-VITE,UNCODED,PROPHYLAXIS OR NON-THERAPEUTIC USE,UNCODED,1,TABLET,QD,ORAL,WEEK 16,27-NOV-2013,JUN-2013,,Y
CDISCPILOT01,701,1440,1,CENTRAL-VITE,UNCODED,PROPHYLAXIS OR NON-THERAPEUTIC USE,UNCODED,1,TABLET,QD,ORAL,WEEK 20,25-DEC-2013,JUN-2013,,Y
CDISCPILOT01,701,1440,1,CENTRAL-VITE,UNCODED,PROPHYLAXIS OR NON-THERAPEUTIC USE,UNCODED,1,TABLET,QD,ORAL,WEEK 24,22-JAN-2014,JUN-2013,,Y
CDISCPILOT01,701,1440,1,CENTRAL-VITE,UNCODED,PROPHYLAXIS OR NON-THERAPEUTIC USE,UNCODED,1,TABLET,QD,ORAL,WEEK 26,05-FEB-2014,JUN-2013,,Y
CDISCPILOT01,701,1442,1,PREMARIN,ESTROGENS CONJUGATED,PROPHYLAXIS OR NON-THERAPEUTIC USE,GENITO URINARY SYSTEM AND SEX HORMONES,0.625,mg,QD,ORAL,SCREENING 1,17-OCT-2013,1997,,Y
CDISCPILOT01,701,1442,1,PREMARIN,ESTROGENS CONJUGATED,PROPHYLAXIS OR NON-THERAPEUTIC USE,GENITO URINARY SYSTEM AND SEX HORMONES,0.625,mg,QD,ORAL,SCREENING 2,24-OCT-2013,1997,,Y
CDISCPILOT01,701,1442,1,PREMARIN,ESTROGENS CONJUGATED,PROPHYLAXIS OR NON-THERAPEUTIC USE,GENITO URINARY SYSTEM AND SEX HORMONES,0.625,mg,QD,ORAL,BASELINE,26-OCT-2013,1997,,Y
CDISCPILOT01,701,1442,1,PREMARIN,ESTROGENS CONJUGATED,PROPHYLAXIS OR NON-THERAPEUTIC USE,GENITO URINARY SYSTEM AND SEX HORMONES,0.625,mg,QD,ORAL,WEEK 2,09-NOV-2013,1997,,Y
CDISCPILOT01,701,1442,1,PREMARIN,ESTROGENS CONJUGATED,PROPHYLAXIS OR NON-THERAPEUTIC USE,GENITO URINARY SYSTEM AND SEX HORMONES,0.625,mg,QD,ORAL,WEEK 4,23-NOV-2013,1997,,Y
CDISCPILOT01,701,1442,1,PREMARIN,ESTROGENS CONJUGATED,PROPHYLAXIS OR NON-THERAPEUTIC USE,GENITO URINARY SYSTEM AND SEX HORMONES,0.625,mg,QD,ORAL,AMBUL ECG REMOVAL,25-NOV-2013,1997,,Y
CDISCPILOT01,701,1442,1,PREMARIN,ESTROGENS CONJUGATED,PROPHYLAXIS OR NON-THERAPEUTIC USE,GENITO URINARY SYSTEM AND SEX HORMONES,0.625,mg,QD,ORAL,WEEK 6,07-DEC-2013,1997,,Y
CDISCPILOT01,701,1442,1,PREMARIN,ESTROGENS CONJUGATED,PROPHYLAXIS OR NON-THERAPEUTIC USE,GENITO URINARY SYSTEM AND SEX HORMONES,0.625,mg,QD,ORAL,WEEK 8,26-DEC-2013,1997,,Y
CDISCPILOT01,701,1442,1,PREMARIN,ESTROGENS CONJUGATED,PROPHYLAXIS OR NON-THERAPEUTIC USE,GENITO URINARY SYSTEM AND SEX HORMONES,0.625,mg,QD,ORAL,WEEK 12,18-JAN-2014,1997,,Y
CDISCPILOT01,701,1442,1,PREMARIN,ESTROGENS CONJUGATED,PROPHYLAXIS OR NON-THERAPEUTIC USE,GENITO URINARY SYSTEM AND SEX HORMONES,0.625,mg,QD,ORAL,WEEK 16,15-FEB-2014,1997,,Y
CDISCPILOT01,701,1442,1,PREMARIN,ESTROGENS CONJUGATED,PROPHYLAXIS OR NON-THERAPEUTIC USE,GENITO URINARY SYSTEM AND SEX HORMONES,0.625,mg,QD,ORAL,WEEK 20,15-MAR-2014,1997,,Y
CDISCPILOT01,701,1442,1,PREMARIN,ESTROGENS CONJUGATED,PROPHYLAXIS OR NON-THERAPEUTIC USE,GENITO URINARY SYSTEM AND SEX HORMONES,0.625,mg,QD,ORAL,WEEK 24,17-APR-2014,1997,,Y
CDISCPILOT01,701,1442,1,PREMARIN,ESTROGENS CONJUGATED,PROPHYLAXIS OR NON-THERAPEUTIC USE,GENITO URINARY SYSTEM AND SEX HORMONES,0.625,mg,QD,ORAL,WEEK 26,26-APR-2014,1997,,Y
CDISCPILOT01,701,1444,1,ADVIL,UNCODED,,UNCODED,200,mg,PRN,ORAL,SCREENING 1,31-DEC-2012,2011,,Y
CDISCPILOT01,701,1444,1,ADVIL,UNCODED,,UNCODED,200,mg,PRN,ORAL,SCREENING 2,03-JAN-2013,2011,,Y
CDISCPILOT01,701,1444,1,ADVIL,UNCODED,,UNCODED,200,mg,PRN,ORAL,BASELINE,05-JAN-2013,2011,,Y
CDISCPILOT01,701,1444,1,ADVIL,UNCODED,,UNCODED,200,mg,PRN,ORAL,WEEK 2,18-JAN-2013,2011,,Y
CDISCPILOT01,701,1444,1,ADVIL,UNCODED,,UNCODED,200,mg,PRN,ORAL,WEEK 4,31-JAN-2013,2011,,Y
CDISCPILOT01,701,1444,1,ADVIL,UNCODED,,UNCODED,200,mg,PRN,ORAL,AMBUL ECG REMOVAL,02-FEB-2013,2011,,Y
CDISCPILOT01,701,1444,1,ADVIL,UNCODED,,UNCODED,200,mg,PRN,ORAL,WEEK 6,13-FEB-2013,2011,,Y
CDISCPILOT01,701,1444,1,ADVIL,UNCODED,,UNCODED,200,mg,PRN,ORAL,AE FOLLOW-UP,20-JUN-2013,2011,,Y
CDISCPILOT01,701,1444,1,ADVIL,UNCODED,,UNCODED,200,mg,PRN,ORAL,RETRIEVAL,20-JUN-2013,2011,,Y
CDISCPILOT01,701,1444,2,METAMUCIL,UNCODED,,UNCODED,3,Tbsp,QD,ORAL,SCREENING 1,31-DEC-2012,2009,,Y
CDISCPILOT01,701,1444,2,METAMUCIL,UNCODED,,UNCODED,3,Tbsp,QD,ORAL,SCREENING 2,03-JAN-2013,2009,,Y
CDISCPILOT01,701,1444,2,METAMUCIL,UNCODED,,UNCODED,3,Tbsp,QD,ORAL,BASELINE,05-JAN-2013,2009,,Y
CDISCPILOT01,701,1444,2,METAMUCIL,UNCODED,,UNCODED,3,Tbsp,QD,ORAL,WEEK 2,18-JAN-2013,2009,,Y
CDISCPILOT01,701,1444,2,METAMUCIL,UNCODED,,UNCODED,3,Tbsp,QD,ORAL,WEEK 4,31-JAN-2013,2009,,Y
CDISCPILOT01,701,1444,2,METAMUCIL,UNCODED,,UNCODED,3,Tbsp,QD,ORAL,AMBUL ECG REMOVAL,02-FEB-2013,2009,,Y
CDISCPILOT01,701,1444,2,METAMUCIL,UNCODED,,UNCODED,3,Tbsp,QD,ORAL,WEEK 6,13-FEB-2013,2009,,Y
CDISCPILOT01,701,1444,2,METAMUCIL,UNCODED,,UNCODED,3,Tbsp,QD,ORAL,AE FOLLOW-UP,20-JUN-2013,2009,,Y
CDISCPILOT01,701,1444,2,METAMUCIL,UNCODED,,UNCODED,3,Tbsp,QD,ORAL,RETRIEVAL,20-JUN-2013,2009,,Y
CDISCPILOT01,701,1444,3,DOCUSATE SODIUM,UNCODED,,UNCODED,100,mg,PRN,ORAL,SCREENING 1,31-DEC-2012,NOV-2012,05-JAN-2013,N
CDISCPILOT01,701,1444,3,DOCUSATE SODIUM,UNCODED,,UNCODED,100,mg,PRN,ORAL,SCREENING 2,03-JAN-2013,NOV-2012,05-JAN-2013,N
CDISCPILOT01,701,1444,3,DOCUSATE SODIUM,UNCODED,,UNCODED,100,mg,PRN,ORAL,BASELINE,05-JAN-2013,NOV-2012,05-JAN-2013,N
CDISCPILOT01,701,1444,3,DOCUSATE SODIUM,UNCODED,,UNCODED,100,mg,PRN,ORAL,WEEK 2,18-JAN-2013,NOV-2012,05-JAN-2013,N
CDISCPILOT01,701,1444,4,BENADRYL,UNCODED,,UNCODED,75,mg,Q6H,ORAL,AE FOLLOW-UP,20-JUN-2013,18-FEB-2013,10-MAY-2013,N
CDISCPILOT01,701,1444,5,PREDNISONE,UNCODED,,UNCODED,20,mg,QD,ORAL,AE FOLLOW-UP,20-JUN-2013,18-FEB-2013,10-MAY-2013,N
CDISCPILOT01,701,1444,6,TEMOVATE,CLOBETASOL PROPIONATE,,DERMATOLOGICALS,1,VIAL,PRN,TOPICAL,AE FOLLOW-UP,20-JUN-2013,18-FEB-2013,20-FEB-2013,N
CDISCPILOT01,702,1082,1,"HYDROCORTISONE, TOPICAL",UNCODED,,UNCODED,2,gtt,PRN,TOPICAL,WEEK 8,28-SEP-2013,24-SEP-2013,31-OCT-2013,N
CDISCPILOT01,702,1082,1,"HYDROCORTISONE, TOPICAL",UNCODED,,UNCODED,2,gtt,PRN,TOPICAL,WEEK 12,17-NOV-2013,24-SEP-2013,31-OCT-2013,N
CDISCPILOT01,703,1042,1,NORVASC,AMLODIPINE,,CARDIOVASCULAR SYSTEM,5,mg,QD,ORAL,SCREENING 1,23-FEB-2013,27-JAN-2013,,Y
CDISCPILOT01,703,1042,1,NORVASC,AMLODIPINE,,CARDIOVASCULAR SYSTEM,5,mg,QD,ORAL,SCREENING 2,28-FEB-2013,27-JAN-2013,,Y
CDISCPILOT01,703,1042,1,NORVASC,AMLODIPINE,,CARDIOVASCULAR SYSTEM,5,mg,QD,ORAL,BASELINE,02-MAR-2013,27-JAN-2013,,Y
CDISCPILOT01,703,1042,1,NORVASC,AMLODIPINE,,CARDIOVASCULAR SYSTEM,5,mg,QD,ORAL,WEEK 2,14-MAR-2013,27-JAN-2013,,Y
CDISCPILOT01,703,1042,1,NORVASC,AMLODIPINE,,CARDIOVASCULAR SYSTEM,5,mg,QD,ORAL,WEEK 4,28-MAR-2013,27-JAN-2013,,Y
CDISCPILOT01,703,1042,1,NORVASC,AMLODIPINE,,CARDIOVASCULAR SYSTEM,5,mg,QD,ORAL,AMBUL ECG REMOVAL,30-MAR-2013,27-JAN-2013,,Y
CDISCPILOT01,703,1042,1,NORVASC,AMLODIPINE,,CARDIOVASCULAR SYSTEM,5,mg,QD,ORAL,WEEK 6,13-APR-2013,27-JAN-2013,,Y
CDISCPILOT01,703,1042,1,NORVASC,AMLODIPINE,,CARDIOVASCULAR SYSTEM,5,mg,QD,ORAL,WEEK 8,27-APR-2013,27-JAN-2013,,Y
CDISCPILOT01,703,1042,1,NORVASC,AMLODIPINE,,CARDIOVASCULAR SYSTEM,5,mg,QD,ORAL,WEEK 12,25-MAY-2013,27-JAN-2013,,Y
CDISCPILOT01,703,1042,1,NORVASC,AMLODIPINE,,CARDIOVASCULAR SYSTEM,5,mg,QD,ORAL,WEEK 16,22-JUN-2013,27-JAN-2013,,Y
CDISCPILOT01,703,1042,1,NORVASC,AMLODIPINE,,CARDIOVASCULAR SYSTEM,5,mg,QD,ORAL,WEEK 20,20-JUL-2013,27-JAN-2013,,Y
CDISCPILOT01,703,1042,1,NORVASC,AMLODIPINE,,CARDIOVASCULAR SYSTEM,5,mg,QD,ORAL,WEEK 24,09-AUG-2013,27-JAN-2013,,Y
CDISCPILOT01,703,1042,1,NORVASC,AMLODIPINE,,CARDIOVASCULAR SYSTEM,5,mg,QD,ORAL,WEEK 26,31-AUG-2013,27-JAN-2013,,Y
CDISCPILOT01,703,1042,2,VITAMIN C,UNCODED,PROPHYLAXIS OR NON-THERAPEUTIC USE,UNCODED,500,mg,QD,ORAL,SCREENING 1,23-FEB-2013,2009,,Y
CDISCPILOT01,703,1042,2,VITAMIN C,UNCODED,PROPHYLAXIS OR NON-THERAPEUTIC USE,UNCODED,500,mg,QD,ORAL,SCREENING 2,28-FEB-2013,2009,,Y
CDISCPILOT01,703,1042,2,VITAMIN C,UNCODED,PROPHYLAXIS OR NON-THERAPEUTIC USE,UNCODED,500,mg,QD,ORAL,BASELINE,02-MAR-2013,2009,,Y
CDISCPILOT01,703,1042,2,VITAMIN C,UNCODED,PROPHYLAXIS OR NON-THERAPEUTIC USE,UNCODED,500,mg,QD,ORAL,WEEK 2,14-MAR-2013,2009,,Y
CDISCPILOT01,703,1042,2,VITAMIN C,UNCODED,PROPHYLAXIS OR NON-THERAPEUTIC USE,UNCODED,500,mg,QD,ORAL,WEEK 4,28-MAR-2013,2009,,Y
CDISCPILOT01,703,1042,2,VITAMIN C,UNCODED,PROPHYLAXIS OR NON-THERAPEUTIC USE,UNCODED,500,mg,QD,ORAL,AMBUL ECG REMOVAL,30-MAR-2013,2009,,Y
CDISCPILOT01,703,1042,2,VITAMIN C,UNCODED,PROPHYLAXIS OR NON-THERAPEUTIC USE,UNCODED,500,mg,QD,ORAL,WEEK 6,13-APR-2013,2009,,Y
CDISCPILOT01,703,1042,2,VITAMIN C,UNCODED,PROPHYLAXIS OR NON-THERAPEUTIC USE,UNCODED,500,mg,QD,ORAL,WEEK 8,27-APR-2013,2009,,Y
CDISCPILOT01,703,1042,2,VITAMIN C,UNCODED,PROPHYLAXIS OR NON-THERAPEUTIC USE,UNCODED,500,mg,QD,ORAL,WEEK 12,25-MAY-2013,2009,,Y
CDISCPILOT01,703,1042,2,VITAMIN C,UNCODED,PROPHYLAXIS OR NON-THERAPEUTIC USE,UNCODED,500,mg,QD,ORAL,WEEK 16,22-JUN-2013,2009,,Y
CDISCPILOT01,703,1042,2,VITAMIN C,UNCODED,PROPHYLAXIS OR NON-THERAPEUTIC USE,UNCODED,500,mg,QD,ORAL,WEEK 20,20-JUL-2013,2009,,Y
CDISCPILOT01,703,1042,2,VITAMIN C,UNCODED,PROPHYLAXIS OR NON-THERAPEUTIC USE,UNCODED,500,mg,QD,ORAL,WEEK 24,09-AUG-2013,2009,,Y
CDISCPILOT01,703,1042,2,VITAMIN C,UNCODED,PROPHYLAXIS OR NON-THERAPEUTIC USE,UNCODED,500,mg,QD,ORAL,WEEK 26,31-AUG-2013,2009,,Y
CDISCPILOT01,703,1042,3,VITAMIN E,UNCODED,PROPHYLAXIS OR NON-THERAPEUTIC USE,UNCODED,200,mg,QD,ORAL,SCREENING 1,23-FEB-2013,2009,,Y
CDISCPILOT01,703,1042,3,VITAMIN E,UNCODED,PROPHYLAXIS OR NON-THERAPEUTIC USE,UNCODED,200,mg,QD,ORAL,SCREENING 2,28-FEB-2013,2009,,Y
CDISCPILOT01,703,1042,3,VITAMIN E,UNCODED,PROPHYLAXIS OR NON-THERAPEUTIC USE,UNCODED,200,mg,QD,ORAL,BASELINE,02-MAR-2013,2009,,Y
CDISCPILOT01,703,1042,3,VITAMIN E,UNCODED,PROPHYLAXIS OR NON-THERAPEUTIC USE,UNCODED,200,mg,QD,ORAL,WEEK 2,14-MAR-2013,2009,,Y
CDISCPILOT01,703,1042,3,VITAMIN E,UNCODED,PROPHYLAXIS OR NON-THERAPEUTIC USE,UNCODED,200,mg,QD,ORAL,WEEK 4,28-MAR-2013,2009,,Y
CDISCPILOT01,703,1042,3,VITAMIN E,UNCODED,PROPHYLAXIS OR NON-THERAPEUTIC USE,UNCODED,200,mg,QD,ORAL,AMBUL ECG REMOVAL,30-MAR-2013,2009,,Y
CDISCPILOT01,703,1042,3,VITAMIN E,UNCODED,PROPHYLAXIS OR NON-THERAPEUTIC USE,UNCODED,200,mg,QD,ORAL,WEEK 6,13-APR-2013,2009,,Y
CDISCPILOT01,703,1042,3,VITAMIN E,UNCODED,PROPHYLAXIS OR NON-THERAPEUTIC USE,UNCODED,200,mg,QD,ORAL,WEEK 8,27-APR-2013,2009,,Y
CDISCPILOT01,703,1042,3,VITAMIN E,UNCODED,PROPHYLAXIS OR NON-THERAPEUTIC USE,UNCODED,200,mg,QD,ORAL,WEEK 12,25-MAY-2013,2009,,Y
CDISCPILOT01,703,1042,3,VITAMIN E,UNCODED,PROPHYLAXIS OR NON-THERAPEUTIC USE,UNCODED,200,mg,QD,ORAL,WEEK 16,22-JUN-2013,2009,,Y
CDISCPILOT01,703,1042,3,VITAMIN E,UNCODED,PROPHYLAXIS OR NON-THERAPEUTIC USE,UNCODED,200,mg,QD,ORAL,WEEK 20,20-JUL-2013,2009,,Y
CDISCPILOT01,703,1042,3,VITAMIN E,UNCODED,PROPHYLAXIS OR NON-THERAPEUTIC USE,UNCODED,200,mg,QD,ORAL,WEEK 24,09-AUG-2013,2009,,Y
CDISCPILOT01,703,1042,3,VITAMIN E,UNCODED,PROPHYLAXIS OR NON-THERAPEUTIC USE,UNCODED,200,mg,QD,ORAL,WEEK 26,31-AUG-2013,2009,,Y
CDISCPILOT01,703,1042,4,KAOPECTATE,UNCODED,,UNCODED,1,Tbsp,ONCE,ORAL,WEEK 2,14-MAR-2013,05-MAR-2013,05-MAR-2013,N
CDISCPILOT01,703,1076,1,ASPIRIN,ACETYLSALICYLIC ACID,PROPHYLAXIS OR NON-THERAPEUTIC USE,NERVOUS SYSTEM,325,mg,QD,ORAL,SCREENING 1,17-OCT-2013,2010,,Y
CDISCPILOT01,703,1076,1,ASPIRIN,ACETYLSALICYLIC ACID,PROPHYLAXIS OR NON-THERAPEUTIC USE,NERVOUS SYSTEM,325,mg,QD,ORAL,SCREENING 2,23-OCT-2013,2010,,Y
CDISCPILOT01,703,1076,1,ASPIRIN,ACETYLSALICYLIC ACID,PROPHYLAXIS OR NON-THERAPEUTIC USE,NERVOUS SYSTEM,325,mg,QD,ORAL,BASELINE,25-OCT-2013,2010,,Y
CDISCPILOT01,703,1076,1,ASPIRIN,ACETYLSALICYLIC ACID,PROPHYLAXIS OR NON-THERAPEUTIC USE,NERVOUS SYSTEM,325,mg,QD,ORAL,WEEK 2,06-NOV-2013,2010,,Y
CDISCPILOT01,703,1076,1,ASPIRIN,ACETYLSALICYLIC ACID,PROPHYLAXIS OR NON-THERAPEUTIC USE,NERVOUS SYSTEM,325,mg,QD,ORAL,WEEK 4,20-NOV-2013,2010,,Y
CDISCPILOT01,703,1076,1,ASPIRIN,ACETYLSALICYLIC ACID,PROPHYLAXIS OR NON-THERAPEUTIC USE,NERVOUS SYSTEM,325,mg,QD,ORAL,AMBUL ECG REMOVAL,22-NOV-2013,2010,,Y
CDISCPILOT01,703,1076,1,ASPIRIN,ACETYLSALICYLIC ACID,PROPHYLAXIS OR NON-THERAPEUTIC USE,NERVOUS SYSTEM,325,mg,QD,ORAL,WEEK 6,04-DEC-2013,2010,,Y
CDISCPILOT01,703,1076,1,ASPIRIN,ACETYLSALICYLIC ACID,PROPHYLAXIS OR NON-THERAPEUTIC USE,NERVOUS SYSTEM,325,mg,QD,ORAL,WEEK 8,17-DEC-2013,2010,,Y
CDISCPILOT01,703,1076,1,ASPIRIN,ACETYLSALICYLIC ACID,PROPHYLAXIS OR NON-THERAPEUTIC USE,NERVOUS SYSTEM,325,mg,QD,ORAL,WEEK 12,24-DEC-2013,2010,,Y
CDISCPILOT01,703,1076,1,ASPIRIN,ACETYLSALICYLIC ACID,PROPHYLAXIS OR NON-THERAPEUTIC USE,NERVOUS SYSTEM,325,mg,QD,ORAL,AE FOLLOW-UP,21-JAN-2014,2010,,Y
CDISCPILOT01,703,1076,2,TIMOPTIC,UNCODED,,UNCODED,1,gtt,EVERY NIGHT,OPHTHALMIC,SCREENING 1,17-OCT-2013,13-NOV-2012,,Y
CDISCPILOT01,703,1076,2,TIMOPTIC,UNCODED,,UNCODED,1,gtt,EVERY NIGHT,OPHTHALMIC,SCREENING 2,23-OCT-2013,13-NOV-2012,,Y
CDISCPILOT01,703,1076,2,TIMOPTIC,UNCODED,,UNCODED,1,gtt,EVERY NIGHT,OPHTHALMIC,BASELINE,25-OCT-2013,13-NOV-2012,,Y
CDISCPILOT01,703,1076,2,TIMOPTIC,UNCODED,,UNCODED,1,gtt,EVERY NIGHT,OPHTHALMIC,WEEK 2,06-NOV-2013,13-NOV-2012,,Y
CDISCPILOT01,703,1076,2,TIMOPTIC,UNCODED,,UNCODED,1,gtt,EVERY NIGHT,OPHTHALMIC,WEEK 4,20-NOV-2013,13-NOV-2012,,Y
CDISCPILOT01,703,1076,2,TIMOPTIC,UNCODED,,UNCODED,1,gtt,EVERY NIGHT,OPHTHALMIC,AMBUL ECG REMOVAL,22-NOV-2013,13-NOV-2012,,Y
CDISCPILOT01,703,1076,2,TIMOPTIC,UNCODED,,UNCODED,1,gtt,EVERY NIGHT,OPHTHALMIC,WEEK 6,04-DEC-2013,13-NOV-2012,,Y
CDISCPILOT01,703,1076,2,TIMOPTIC,UNCODED,,UNCODED,1,gtt,EVERY NIGHT,OPHTHALMIC,WEEK 8,17-DEC-2013,13-NOV-2012,,Y
CDISCPILOT01,703,1076,2,TIMOPTIC,UNCODED,,UNCODED,1,gtt,EVERY NIGHT,OPHTHALMIC,WEEK 12,24-DEC-2013,13-NOV-2012,,Y
CDISCPILOT01,703,1076,2,TIMOPTIC,UNCODED,,UNCODED,1,gtt,EVERY NIGHT,OPHTHALMIC,AE FOLLOW-UP,21-JAN-2014,13-NOV-2012,,Y
CDISCPILOT01,703,1076,3,LOPID,UNCODED,,UNCODED,600,mg,BID,ORAL,SCREENING 1,17-OCT-2013,31-AUG-2013,27-NOV-2013,N
CDISCPILOT01,703,1076,3,LOPID,UNCODED,,UNCODED,600,mg,BID,ORAL,SCREENING 2,23-OCT-2013,31-AUG-2013,27-NOV-2013,N
CDISCPILOT01,703,1076,3,LOPID,UNCODED,,UNCODED,600,mg,BID,ORAL,BASELINE,25-OCT-2013,31-AUG-2013,27-NOV-2013,N
CDISCPILOT01,703,1076,3,LOPID,UNCODED,,UNCODED,600,mg,BID,ORAL,WEEK 2,06-NOV-2013,31-AUG-2013,27-NOV-2013,N
CDISCPILOT01,703,1076,3,LOPID,UNCODED,,UNCODED,600,mg,BID,ORAL,WEEK 4,20-NOV-2013,31-AUG-2013,27-NOV-2013,N
CDISCPILOT01,703,1076,3,LOPID,UNCODED,,UNCODED,600,mg,BID,ORAL,AMBUL ECG REMOVAL,22-NOV-2013,31-AUG-2013,27-NOV-2013,N
CDISCPILOT01,703,1076,3,LOPID,UNCODED,,UNCODED,600,mg,BID,ORAL,WEEK 6,04-DEC-2013,31-AUG-2013,27-NOV-2013,N
CDISCPILOT01,703,1076,4,CORTISONE,UNCODED,,UNCODED,10,mg,PRN,TOPICAL,WEEK 8,17-DEC-2013,05-DEC-2013,,Y
CDISCPILOT01,703,1076,4,CORTISONE,UNCODED,,UNCODED,10,mg,PRN,TOPICAL,WEEK 12,24-DEC-2013,05-DEC-2013,,Y
CDISCPILOT01,703,1076,4,CORTISONE,UNCODED,,UNCODED,10,mg,PRN,TOPICAL,AE FOLLOW-UP,21-JAN-2014,05-DEC-2013,,Y
CDISCPILOT01,703,1076,5,LIPITOR,UNCODED,,UNCODED,10,mg,QD,ORAL,WEEK 8,17-DEC-2013,12-DEC-2013,,Y
CDISCPILOT01,703,1076,5,LIPITOR,UNCODED,,UNCODED,10,mg,QD,ORAL,WEEK 12,24-DEC-2013,12-DEC-2013,,Y
CDISCPILOT01,703,1076,5,LIPITOR,UNCODED,,UNCODED,10,mg,QD,ORAL,AE FOLLOW-UP,21-JAN-2014,12-DEC-2013,,Y
CDISCPILOT01,703,1076,6,MEVACOR,UNCODED,,UNCODED,20,mg,QD,ORAL,WEEK 6,04-DEC-2013,28-NOV-2013,12-DEC-2013,N
CDISCPILOT01,703,1076,6,MEVACOR,UNCODED,,UNCODED,20,mg,QD,ORAL,WEEK 8,17-DEC-2013,28-NOV-2013,12-DEC-2013,N
CDISCPILOT01,703,1076,7,LAC-HYDRIN,UNCODED,,UNCODED,,,BID,TOPICAL,WEEK 12,24-DEC-2013,18-DEC-2013,,Y
CDISCPILOT01,703,1076,7,LAC-HYDRIN,UNCODED,,UNCODED,,,BID,TOPICAL,AE FOLLOW-UP,21-JAN-2014,18-DEC-2013,,Y
CDISCPILOT01,703,1086,1,CALAMINE,UNCODED,,UNCODED,1,VIAL,PRN,TOPICAL,WEEK 4,30-SEP-2012,30-SEP-2012,13-DEC-2012,N
CDISCPILOT01,703,1086,1,CALAMINE,UNCODED,,UNCODED,1,VIAL,PRN,TOPICAL,AMBUL ECG REMOVAL,02-OCT-2012,30-SEP-2012,13-DEC-2012,N
CDISCPILOT01,703,1086,1,CALAMINE,UNCODED,,UNCODED,1,VIAL,PRN,TOPICAL,WEEK 6,13-OCT-2012,30-SEP-2012,13-DEC-2012,N
CDISCPILOT01,703,1086,1,CALAMINE,UNCODED,,UNCODED,1,VIAL,PRN,TOPICAL,WEEK 8,27-OCT-2012,30-SEP-2012,13-DEC-2012,N
CDISCPILOT01,703,1086,1,CALAMINE,UNCODED,,UNCODED,1,VIAL,PRN,TOPICAL,WEEK 12,27-NOV-2012,30-SEP-2012,13-DEC-2012,N
CDISCPILOT01,703,1086,1,CALAMINE,UNCODED,,UNCODED,1,VIAL,PRN,TOPICAL,WEEK 16,24-DEC-2012,30-SEP-2012,13-DEC-2012,N
CDISCPILOT01,703,1086,2,CORTISONE,UNCODED,,UNCODED,1,%,PRN,TOPICAL,WEEK 2,16-SEP-2012,15-SEP-2012,13-DEC-2012,N
CDISCPILOT01,703,1086,2,CORTISONE,UNCODED,,UNCODED,1,%,PRN,TOPICAL,WEEK 4,30-SEP-2012,15-SEP-2012,13-DEC-2012,N
CDISCPILOT01,703,1086,2,CORTISONE,UNCODED,,UNCODED,1,%,PRN,TOPICAL,AMBUL ECG REMOVAL,02-OCT-2012,15-SEP-2012,13-DEC-2012,N
CDISCPILOT01,703,1086,2,CORTISONE,UNCODED,,UNCODED,1,%,PRN,TOPICAL,WEEK 6,13-OCT-2012,15-SEP-2012,13-DEC-2012,N
CDISCPILOT01,703,1086,2,CORTISONE,UNCODED,,UNCODED,1,%,PRN,TOPICAL,WEEK 8,27-OCT-2012,15-SEP-2012,13-DEC-2012,N
CDISCPILOT01,703,1086,2,CORTISONE,UNCODED,,UNCODED,1,%,PRN,TOPICAL,WEEK 12,27-NOV-2012,15-SEP-2012,13-DEC-2012,N
CDISCPILOT01,703,1086,2,CORTISONE,UNCODED,,UNCODED,1,%,PRN,TOPICAL,WEEK 16,24-DEC-2012,15-SEP-2012,13-DEC-2012,N
CDISCPILOT01,703,1086,3,CORTISONE,UNCODED,,UNCODED,2.5,%,PRN,TOPICAL,WEEK 4,30-SEP-2012,30-SEP-2012,13-DEC-2012,N
CDISCPILOT01,703,1086,3,CORTISONE,UNCODED,,UNCODED,2.5,%,PRN,TOPICAL,AMBUL ECG REMOVAL,02-OCT-2012,30-SEP-2012,13-DEC-2012,N
CDISCPILOT01,703,1086,3,CORTISONE,UNCODED,,UNCODED,2.5,%,PRN,TOPICAL,WEEK 6,13-OCT-2012,30-SEP-2012,13-DEC-2012,N
CDISCPILOT01,703,1086,3,CORTISONE,UNCODED,,UNCODED,2.5,%,PRN,TOPICAL,WEEK 8,27-OCT-2012,30-SEP-2012,13-DEC-2012,N
CDISCPILOT01,703,1086,3,CORTISONE,UNCODED,,UNCODED,2.5,%,PRN,TOPICAL,WEEK 12,27-NOV-2012,30-SEP-2012,13-DEC-2012,N
CDISCPILOT01,703,1086,3,CORTISONE,UNCODED,,UNCODED,2.5,%,PRN,TOPICAL,WEEK 16,24-DEC-2012,30-SEP-2012,13-DEC-2012,N
CDISCPILOT01,703,1100,1,IBUPROFEN,UNCODED,,UNCODED,200,mg,PRN,ORAL,SCREENING 1,28-FEB-2013,2006,,Y
CDISCPILOT01,703,1100,1,IBUPROFEN,UNCODED,,UNCODED,200,mg,PRN,ORAL,SCREENING 2,11-MAR-2013,2006,,Y
CDISCPILOT01,703,1100,1,IBUPROFEN,UNCODED,,UNCODED,200,mg,PRN,ORAL,BASELINE,13-MAR-2013,2006,,Y
CDISCPILOT01,703,1100,1,IBUPROFEN,UNCODED,,UNCODED,200,mg,PRN,ORAL,WEEK 2,29-MAR-2013,2006,,Y
CDISCPILOT01,703,1100,1,IBUPROFEN,UNCODED,,UNCODED,200,mg,PRN,ORAL,WEEK 4,12-APR-2013,2006,,Y
CDISCPILOT01,703,1100,1,IBUPROFEN,UNCODED,,UNCODED,200,mg,PRN,ORAL,AMBUL ECG REMOVAL,14-APR-2013,2006,,Y
CDISCPILOT01,703,1100,1,IBUPROFEN,UNCODED,,UNCODED,200,mg,PRN,ORAL,WEEK 6,24-APR-2013,2006,,Y
CDISCPILOT01,703,1100,1,IBUPROFEN,UNCODED,,UNCODED,200,mg,PRN,ORAL,WEEK 8,08-MAY-2013,2006,,Y
CDISCPILOT01,703,1100,1,IBUPROFEN,UNCODED,,UNCODED,200,mg,PRN,ORAL,WEEK 12,05-JUN-2013,2006,,Y
CDISCPILOT01,703,1100,1,IBUPROFEN,UNCODED,,UNCODED,200,mg,PRN,ORAL,WEEK 16,03-JUL-2013,2006,,Y
CDISCPILOT01,703,1100,1,IBUPROFEN,UNCODED,,UNCODED,200,mg,PRN,ORAL,WEEK 20,31-JUL-2013,2006,,Y
CDISCPILOT01,703,1100,1,IBUPROFEN,UNCODED,,UNCODED,200,mg,PRN,ORAL,WEEK 24,28-AUG-2013,2006,,Y
CDISCPILOT01,703,1100,1,IBUPROFEN,UNCODED,,UNCODED,200,mg,PRN,ORAL,WEEK 26,14-SEP-2013,2006,,Y
CDISCPILOT01,703,1100,2,LEVOXYL,UNCODED,,UNCODED,0.05,mg,QD,ORAL,SCREENING 1,28-FEB-2013,2011,,Y
CDISCPILOT01,703,1100,2,LEVOXYL,UNCODED,,UNCODED,0.05,mg,QD,ORAL,SCREENING 2,11-MAR-2013,2011,,Y
CDISCPILOT01,703,1100,2,LEVOXYL,UNCODED,,UNCODED,0.05,mg,QD,ORAL,BASELINE,13-MAR-2013,2011,,Y
CDISCPILOT01,703,1100,2,LEVOXYL,UNCODED,,UNCODED,0.05,mg,QD,ORAL,WEEK 2,29-MAR-2013,2011,,Y
CDISCPILOT01,703,1100,2,LEVOXYL,UNCODED,,UNCODED,0.05,mg,QD,ORAL,WEEK 4,12-APR-2013,2011,,Y
CDISCPILOT01,703,1100,2,LEVOXYL,UNCODED,,UNCODED,0.05,mg,QD,ORAL,AMBUL ECG REMOVAL,14-APR-2013,2011,,Y
CDISCPILOT01,703,1100,2,LEVOXYL,UNCODED,,UNCODED,0.05,mg,QD,ORAL,WEEK 6,24-APR-2013,2011,,Y
CDISCPILOT01,703,1100,2,LEVOXYL,UNCODED,,UNCODED,0.05,mg,QD,ORAL,WEEK 8,08-MAY-2013,2011,,Y
CDISCPILOT01,703,1100,2,LEVOXYL,UNCODED,,UNCODED,0.05,mg,QD,ORAL,WEEK 12,05-JUN-2013,2011,,Y
CDISCPILOT01,703,1100,2,LEVOXYL,UNCODED,,UNCODED,0.05,mg,QD,ORAL,WEEK 16,03-JUL-2013,2011,,Y
CDISCPILOT01,703,1100,2,LEVOXYL,UNCODED,,UNCODED,0.05,mg,QD,ORAL,WEEK 20,31-JUL-2013,2011,,Y
CDISCPILOT01,703,1100,2,LEVOXYL,UNCODED,,UNCODED,0.05,mg,QD,ORAL,WEEK 24,28-AUG-2013,2011,,Y
CDISCPILOT01,703,1100,2,LEVOXYL,UNCODED,,UNCODED,0.05,mg,QD,ORAL,WEEK 26,14-SEP-2013,2011,,Y
CDISCPILOT01,703,1100,3,VITAMIN B12,UNCODED,PROPHYLAXIS OR NON-THERAPEUTIC USE,UNCODED,15,ug,PRN,ORAL,SCREENING 1,28-FEB-2013,19-JAN-2012,,Y
CDISCPILOT01,703,1100,3,VITAMIN B12,UNCODED,PROPHYLAXIS OR NON-THERAPEUTIC USE,UNCODED,15,ug,PRN,ORAL,SCREENING 2,11-MAR-2013,19-JAN-2012,,Y
CDISCPILOT01,703,1100,3,VITAMIN B12,UNCODED,PROPHYLAXIS OR NON-THERAPEUTIC USE,UNCODED,15,ug,PRN,ORAL,BASELINE,13-MAR-2013,19-JAN-2012,,Y
CDISCPILOT01,703,1100,3,VITAMIN B12,UNCODED,PROPHYLAXIS OR NON-THERAPEUTIC USE,UNCODED,15,ug,PRN,ORAL,WEEK 2,29-MAR-2013,19-JAN-2012,,Y
CDISCPILOT01,703,1100,3,VITAMIN B12,UNCODED,PROPHYLAXIS OR NON-THERAPEUTIC USE,UNCODED,15,ug,PRN,ORAL,WEEK 4,12-APR-2013,19-JAN-2012,,Y
CDISCPILOT01,703,1100,3,VITAMIN B12,UNCODED,PROPHYLAXIS OR NON-THERAPEUTIC USE,UNCODED,15,ug,PRN,ORAL,AMBUL ECG REMOVAL,14-APR-2013,19-JAN-2012,,Y
CDISCPILOT01,703,1100,3,VITAMIN B12,UNCODED,PROPHYLAXIS OR NON-THERAPEUTIC USE,UNCODED,15,ug,PRN,ORAL,WEEK 6,24-APR-2013,19-JAN-2012,,Y
CDISCPILOT01,703,1100,3,VITAMIN B12,UNCODED,PROPHYLAXIS OR NON-THERAPEUTIC USE,UNCODED,15,ug,PRN,ORAL,WEEK 8,08-MAY-2013,19-JAN-2012,,Y
CDISCPILOT01,703,1100,3,VITAMIN B12,UNCODED,PROPHYLAXIS OR NON-THERAPEUTIC USE,UNCODED,15,ug,PRN,ORAL,WEEK 12,05-JUN-2013,19-JAN-2012,,Y
CDISCPILOT01,703,1100,3,VITAMIN B12,UNCODED,PROPHYLAXIS OR NON-THERAPEUTIC USE,UNCODED,15,ug,PRN,ORAL,WEEK 16,03-JUL-2013,19-JAN-2012,,Y
CDISCPILOT01,703,1100,3,VITAMIN B12,UNCODED,PROPHYLAXIS OR NON-THERAPEUTIC USE,UNCODED,15,ug,PRN,ORAL,WEEK 20,31-JUL-2013,19-JAN-2012,,Y
CDISCPILOT01,703,1100,3,VITAMIN B12,UNCODED,PROPHYLAXIS OR NON-THERAPEUTIC USE,UNCODED,15,ug,PRN,ORAL,WEEK 24,28-AUG-2013,19-JAN-2012,,Y
CDISCPILOT01,703,1100,3,VITAMIN B12,UNCODED,PROPHYLAXIS OR NON-THERAPEUTIC USE,UNCODED,15,ug,PRN,ORAL,WEEK 26,14-SEP-2013,19-JAN-2012,,Y
CDISCPILOT01,703,1100,4,NEOSPORIN /USA/,UNCODED,,UNCODED,1,g,PRN,TOPICAL,WEEK 4,12-APR-2013,05-APR-2013,15-APR-2013,N
CDISCPILOT01,703,1100,4,NEOSPORIN /USA/,UNCODED,,UNCODED,1,g,PRN,TOPICAL,AMBUL ECG REMOVAL,14-APR-2013,05-APR-2013,15-APR-2013,N
CDISCPILOT01,703,1100,4,NEOSPORIN /USA/,UNCODED,,UNCODED,1,g,PRN,TOPICAL,WEEK 6,24-APR-2013,05-APR-2013,15-APR-2013,N
CDISCPILOT01,703,1100,5,CEPHALOSPORIN C,UNCODED,,UNCODED,1,gtt,BID,OPHTHALMIC,WEEK 8,08-MAY-2013,25-APR-2013,11-MAY-2013,N
CDISCPILOT01,703,1100,5,CEPHALOSPORIN C,UNCODED,,UNCODED,1,gtt,BID,OPHTHALMIC,WEEK 12,05-JUN-2013,25-APR-2013,11-MAY-2013,N
CDISCPILOT01,703,1100,6,ERYTHROMYCIN,UNCODED,,UNCODED,500,mg,BID,ORAL,WEEK 12,05-JUN-2013,29-MAY-2013,06-JUN-2013,N
CDISCPILOT01,703,1100,6,ERYTHROMYCIN,UNCODED,,UNCODED,500,mg,BID,ORAL,WEEK 16,03-JUL-2013,29-MAY-2013,06-JUN-2013,N
CDISCPILOT01,703,1100,7,CORTISONE,UNCODED,PROPHYLAXIS OR NON-THERAPEUTIC USE,UNCODED,10,mg,PRN,TOPICAL,WEEK 20,31-JUL-2013,08-JUL-2013,,Y
CDISCPILOT01,703,1100,7,CORTISONE,UNCODED,PROPHYLAXIS OR NON-THERAPEUTIC USE,UNCODED,10,mg,PRN,TOPICAL,WEEK 24,28-AUG-2013,08-JUL-2013,,Y
CDISCPILOT01,703,1100,7,CORTISONE,UNCODED,PROPHYLAXIS OR NON-THERAPEUTIC USE,UNCODED,10,mg,PRN,TOPICAL,WEEK 26,14-SEP-2013,08-JUL-2013,,Y
CDISCPILOT01,703,1119,1,NORVASC,AMLODIPINE,,CARDIOVASCULAR SYSTEM,5,mg,QD,ORAL,SCREENING 1,02-FEB-2013,20-JAN-2013,,Y
CDISCPILOT01,703,1119,1,NORVASC,AMLODIPINE,,CARDIOVASCULAR SYSTEM,5,mg,QD,ORAL,SCREENING 2,14-FEB-2013,20-JAN-2013,,Y
CDISCPILOT01,703,1119,1,NORVASC,AMLODIPINE,,CARDIOVASCULAR SYSTEM,5,mg,QD,ORAL,BASELINE,20-FEB-2013,20-JAN-2013,,Y
CDISCPILOT01,703,1119,1,NORVASC,AMLODIPINE,,CARDIOVASCULAR SYSTEM,5,mg,QD,ORAL,WEEK 2,10-MAR-2013,20-JAN-2013,,Y
CDISCPILOT01,703,1119,1,NORVASC,AMLODIPINE,,CARDIOVASCULAR SYSTEM,5,mg,QD,ORAL,WEEK 4,21-MAR-2013,20-JAN-2013,,Y
CDISCPILOT01,703,1119,1,NORVASC,AMLODIPINE,,CARDIOVASCULAR SYSTEM,5,mg,QD,ORAL,AMBUL ECG REMOVAL,23-MAR-2013,20-JAN-2013,,Y
CDISCPILOT01,703,1119,1,NORVASC,AMLODIPINE,,CARDIOVASCULAR SYSTEM,5,mg,QD,ORAL,WEEK 6,04-APR-2013,20-JAN-2013,,Y
CDISCPILOT01,703,1119,1,NORVASC,AMLODIPINE,,CARDIOVASCULAR SYSTEM,5,mg,QD,ORAL,WEEK 8,19-APR-2013,20-JAN-2013,,Y
CDISCPILOT01,703,1119,1,NORVASC,AMLODIPINE,,CARDIOVASCULAR SYSTEM,5,mg,QD,ORAL,WEEK 12,17-MAY-2013,20-JAN-2013,,Y
CDISCPILOT01,703,1119,1,NORVASC,AMLODIPINE,,CARDIOVASCULAR SYSTEM,5,mg,QD,ORAL,WEEK 16,13-JUN-2013,20-JAN-2013,,Y
CDISCPILOT01,703,1119,1,NORVASC,AMLODIPINE,,CARDIOVASCULAR SYSTEM,5,mg,QD,ORAL,AE FOLLOW-UP,20-JUL-2013,20-JAN-2013,,Y
CDISCPILOT01,703,1119,1,NORVASC,AMLODIPINE,,CARDIOVASCULAR SYSTEM,5,mg,QD,ORAL,RETRIEVAL,24-AUG-2013,20-JAN-2013,,Y
CDISCPILOT01,703,1119,2,PREMARIN,ESTROGENS CONJUGATED,PROPHYLAXIS OR NON-THERAPEUTIC USE,GENITO URINARY SYSTEM AND SEX HORMONES,0.3,mg,QD,ORAL,SCREENING 1,02-FEB-2013,13-JAN-2012,,Y
CDISCPILOT01,703,1119,2,PREMARIN,ESTROGENS CONJUGATED,PROPHYLAXIS OR NON-THERAPEUTIC USE,GENITO URINARY SYSTEM AND SEX HORMONES,0.3,mg,QD,ORAL,SCREENING 2,14-FEB-2013,13-JAN-2012,,Y
CDISCPILOT01,703,1119,2,PREMARIN,ESTROGENS CONJUGATED,PROPHYLAXIS OR NON-THERAPEUTIC USE,GENITO URINARY SYSTEM AND SEX HORMONES,0.3,mg,QD,ORAL,BASELINE,20-FEB-2013,13-JAN-2012,,Y
CDISCPILOT01,703,1119,2,PREMARIN,ESTROGENS CONJUGATED,PROPHYLAXIS OR NON-THERAPEUTIC USE,GENITO URINARY SYSTEM AND SEX HORMONES,0.3,mg,QD,ORAL,WEEK 2,10-MAR-2013,13-JAN-2012,,Y
CDISCPILOT01,703,1119,2,PREMARIN,ESTROGENS CONJUGATED,PROPHYLAXIS OR NON-THERAPEUTIC USE,GENITO URINARY SYSTEM AND SEX HORMONES,0.3,mg,QD,ORAL,WEEK 4,21-MAR-2013,13-JAN-2012,,Y
CDISCPILOT01,703,1119,2,PREMARIN,ESTROGENS CONJUGATED,PROPHYLAXIS OR NON-THERAPEUTIC USE,GENITO URINARY SYSTEM AND SEX HORMONES,0.3,mg,QD,ORAL,AMBUL ECG REMOVAL,23-MAR-2013,13-JAN-2012,,Y
CDISCPILOT01,703,1119,2,PREMARIN,ESTROGENS CONJUGATED,PROPHYLAXIS OR NON-THERAPEUTIC USE,GENITO URINARY SYSTEM AND SEX HORMONES,0.3,mg,QD,ORAL,WEEK 6,04-APR-2013,13-JAN-2012,,Y
CDISCPILOT01,703,1119,2,PREMARIN,ESTROGENS CONJUGATED,PROPHYLAXIS OR NON-THERAPEUTIC USE,GENITO URINARY SYSTEM AND SEX HORMONES,0.3,mg,QD,ORAL,WEEK 8,19-APR-2013,13-JAN-2012,,Y
CDISCPILOT01,703,1119,2,PREMARIN,ESTROGENS CONJUGATED,PROPHYLAXIS OR NON-THERAPEUTIC USE,GENITO URINARY SYSTEM AND SEX HORMONES,0.3,mg,QD,ORAL,WEEK 12,17-MAY-2013,13-JAN-2012,,Y
CDISCPILOT01,703,1119,2,PREMARIN,ESTROGENS CONJUGATED,PROPHYLAXIS OR NON-THERAPEUTIC USE,GENITO URINARY SYSTEM AND SEX HORMONES,0.3,mg,QD,ORAL,WEEK 16,13-JUN-2013,13-JAN-2012,,Y
CDISCPILOT01,703,1119,2,PREMARIN,ESTROGENS CONJUGATED,PROPHYLAXIS OR NON-THERAPEUTIC USE,GENITO URINARY SYSTEM AND SEX HORMONES,0.3,mg,QD,ORAL,AE FOLLOW-UP,20-JUL-2013,13-JAN-2012,,Y
CDISCPILOT01,703,1119,2,PREMARIN,ESTROGENS CONJUGATED,PROPHYLAXIS OR NON-THERAPEUTIC USE,GENITO URINARY SYSTEM AND SEX HORMONES,0.3,mg,QD,ORAL,RETRIEVAL,24-AUG-2013,13-JAN-2012,,Y
CDISCPILOT01,703,1119,3,ZOCOR,UNCODED,,UNCODED,10,mg,QD,ORAL,SCREENING 1,02-FEB-2013,20-JAN-2013,,Y
CDISCPILOT01,703,1119,3,ZOCOR,UNCODED,,UNCODED,10,mg,QD,ORAL,SCREENING 2,14-FEB-2013,20-JAN-2013,,Y
CDISCPILOT01,703,1119,3,ZOCOR,UNCODED,,UNCODED,10,mg,QD,ORAL,BASELINE,20-FEB-2013,20-JAN-2013,,Y
CDISCPILOT01,703,1119,3,ZOCOR,UNCODED,,UNCODED,10,mg,QD,ORAL,WEEK 2,10-MAR-2013,20-JAN-2013,,Y
CDISCPILOT01,703,1119,3,ZOCOR,UNCODED,,UNCODED,10,mg,QD,ORAL,WEEK 4,21-MAR-2013,20-JAN-2013,,Y
CDISCPILOT01,703,1119,3,ZOCOR,UNCODED,,UNCODED,10,mg,QD,ORAL,AMBUL ECG REMOVAL,23-MAR-2013,20-JAN-2013,,Y
CDISCPILOT01,703,1119,3,ZOCOR,UNCODED,,UNCODED,10,mg,QD,ORAL,WEEK 6,04-APR-2013,20-JAN-2013,,Y
CDISCPILOT01,703,1119,3,ZOCOR,UNCODED,,UNCODED,10,mg,QD,ORAL,WEEK 8,19-APR-2013,20-JAN-2013,,Y
CDISCPILOT01,703,1119,3,ZOCOR,UNCODED,,UNCODED,10,mg,QD,ORAL,WEEK 12,17-MAY-2013,20-JAN-2013,,Y
CDISCPILOT01,703,1119,3,ZOCOR,UNCODED,,UNCODED,10,mg,QD,ORAL,WEEK 16,13-JUN-2013,20-JAN-2013,,Y
CDISCPILOT01,703,1119,3,ZOCOR,UNCODED,,UNCODED,10,mg,QD,ORAL,AE FOLLOW-UP,20-JUL-2013,20-JAN-2013,,Y
CDISCPILOT01,703,1119,3,ZOCOR,UNCODED,,UNCODED,10,mg,QD,ORAL,RETRIEVAL,24-AUG-2013,20-JAN-2013,,Y
CDISCPILOT01,703,1119,4,"HYDROCORTISONE, TOPICAL",UNCODED,,UNCODED,0.5,%,PRN,TOPICAL,WEEK 6,04-APR-2013,04-APR-2013,,Y
CDISCPILOT01,703,1119,4,"HYDROCORTISONE, TOPICAL",UNCODED,,UNCODED,0.5,%,PRN,TOPICAL,WEEK 8,19-APR-2013,04-APR-2013,,Y
CDISCPILOT01,703,1119,4,"HYDROCORTISONE, TOPICAL",UNCODED,,UNCODED,0.5,%,PRN,TOPICAL,WEEK 12,17-MAY-2013,04-APR-2013,,Y
CDISCPILOT01,703,1119,4,"HYDROCORTISONE, TOPICAL",UNCODED,,UNCODED,0.5,%,PRN,TOPICAL,WEEK 16,13-JUN-2013,04-APR-2013,,Y
CDISCPILOT01,703,1119,4,"HYDROCORTISONE, TOPICAL",UNCODED,,UNCODED,0.5,%,PRN,TOPICAL,AE FOLLOW-UP,20-JUL-2013,04-APR-2013,,Y
CDISCPILOT01,703,1119,4,"HYDROCORTISONE, TOPICAL",UNCODED,,UNCODED,0.5,%,PRN,TOPICAL,RETRIEVAL,24-AUG-2013,04-APR-2013,,Y
CDISCPILOT01,703,1119,5,ALLEGRA,UNCODED,,UNCODED,60,mg,BID,ORAL,WEEK 12,17-MAY-2013,17-MAY-2013,16-JUN-2013,N
CDISCPILOT01,703,1119,5,ALLEGRA,UNCODED,,UNCODED,60,mg,BID,ORAL,WEEK 16,13-JUN-2013,17-MAY-2013,16-JUN-2013,N
CDISCPILOT01,703,1119,5,ALLEGRA,UNCODED,,UNCODED,60,mg,BID,ORAL,AE FOLLOW-UP,20-JUL-2013,17-MAY-2013,16-JUN-2013,N
CDISCPILOT01,703,1182,1,FUROSEMIDE,UNCODED,,UNCODED,40,mg,QD,ORAL,SCREENING 1,08-OCT-2013,1997,,Y
CDISCPILOT01,703,1182,1,FUROSEMIDE,UNCODED,,UNCODED,40,mg,QD,ORAL,SCREENING 2,15-OCT-2013,1997,,Y
CDISCPILOT01,703,1182,1,FUROSEMIDE,UNCODED,,UNCODED,40,mg,QD,ORAL,BASELINE,17-OCT-2013,1997,,Y
CDISCPILOT01,703,1182,1,FUROSEMIDE,UNCODED,,UNCODED,40,mg,QD,ORAL,WEEK 2,31-OCT-2013,1997,,Y
CDISCPILOT01,703,1182,1,FUROSEMIDE,UNCODED,,UNCODED,40,mg,QD,ORAL,WEEK 4,19-NOV-2013,1997,,Y
CDISCPILOT01,703,1182,1,FUROSEMIDE,UNCODED,,UNCODED,40,mg,QD,ORAL,AMBUL ECG REMOVAL,20-NOV-2013,1997,,Y
CDISCPILOT01,703,1182,1,FUROSEMIDE,UNCODED,,UNCODED,40,mg,QD,ORAL,WEEK 6,28-NOV-2013,1997,,Y
CDISCPILOT01,703,1182,1,FUROSEMIDE,UNCODED,,UNCODED,40,mg,QD,ORAL,WEEK 8,12-DEC-2013,1997,,Y
CDISCPILOT01,703,1182,1,FUROSEMIDE,UNCODED,,UNCODED,40,mg,QD,ORAL,AE FOLLOW-UP,14-JAN-2014,1997,,Y
CDISCPILOT01,703,1182,2,LESCOL,FLUVASTATIN,,CARDIOVASCULAR SYSTEM,5,mg,QD,ORAL,SCREENING 1,08-OCT-2013,2010,,Y
CDISCPILOT01,703,1182,2,LESCOL,FLUVASTATIN,,CARDIOVASCULAR SYSTEM,5,mg,QD,ORAL,SCREENING 2,15-OCT-2013,2010,,Y
CDISCPILOT01,703,1182,2,LESCOL,FLUVASTATIN,,CARDIOVASCULAR SYSTEM,5,mg,QD,ORAL,BASELINE,17-OCT-2013,2010,,Y
CDISCPILOT01,703,1182,2,LESCOL,FLUVASTATIN,,CARDIOVASCULAR SYSTEM,5,mg,QD,ORAL,WEEK 2,31-OCT-2013,2010,,Y
CDISCPILOT01,703,1182,2,LESCOL,FLUVASTATIN,,CARDIOVASCULAR SYSTEM,5,mg,QD,ORAL,WEEK 4,19-NOV-2013,2010,,Y
CDISCPILOT01,703,1182,2,LESCOL,FLUVASTATIN,,CARDIOVASCULAR SYSTEM,5,mg,QD,ORAL,AMBUL ECG REMOVAL,20-NOV-2013,2010,,Y
CDISCPILOT01,703,1182,2,LESCOL,FLUVASTATIN,,CARDIOVASCULAR SYSTEM,5,mg,QD,ORAL,WEEK 6,28-NOV-2013,2010,,Y
CDISCPILOT01,703,1182,2,LESCOL,FLUVASTATIN,,CARDIOVASCULAR SYSTEM,5,mg,QD,ORAL,WEEK 8,12-DEC-2013,2010,,Y
CDISCPILOT01,703,1182,2,LESCOL,FLUVASTATIN,,CARDIOVASCULAR SYSTEM,5,mg,QD,ORAL,AE FOLLOW-UP,14-JAN-2014,2010,,Y
CDISCPILOT01,703,1182,3,PREDNISONE,UNCODED,,UNCODED,5,mg,BID,ORAL,SCREENING 1,08-OCT-2013,2003,,Y
CDISCPILOT01,703,1182,3,PREDNISONE,UNCODED,,UNCODED,5,mg,BID,ORAL,SCREENING 2,15-OCT-2013,2003,,Y
CDISCPILOT01,703,1182,3,PREDNISONE,UNCODED,,UNCODED,5,mg,BID,ORAL,BASELINE,17-OCT-2013,2003,,Y
CDISCPILOT01,703,1182,3,PREDNISONE,UNCODED,,UNCODED,5,mg,BID,ORAL,WEEK 2,31-OCT-2013,2003,,Y
CDISCPILOT01,703,1182,3,PREDNISONE,UNCODED,,UNCODED,5,mg,BID,ORAL,WEEK 4,19-NOV-2013,2003,,Y
CDISCPILOT01,703,1182,3,PREDNISONE,UNCODED,,UNCODED,5,mg,BID,ORAL,AMBUL ECG REMOVAL,20-NOV-2013,2003,,Y
CDISCPILOT01,703,1182,3,PREDNISONE,UNCODED,,UNCODED,5,mg,BID,ORAL,WEEK 6,28-NOV-2013,2003,,Y
CDISCPILOT01,703,1182,3,PREDNISONE,UNCODED,,UNCODED,5,mg,BID,ORAL,WEEK 8,12-DEC-2013,2003,,Y
CDISCPILOT01,703,1182,3,PREDNISONE,UNCODED,,UNCODED,5,mg,BID,ORAL,AE FOLLOW-UP,14-JAN-2014,2003,,Y
CDISCPILOT01,703,1182,4,PRINIVIL,UNCODED,,UNCODED,20,mg,QD,ORAL,SCREENING 1,08-OCT-2013,2010,,Y
CDISCPILOT01,703,1182,4,PRINIVIL,UNCODED,,UNCODED,20,mg,QD,ORAL,SCREENING 2,15-OCT-2013,2010,,Y
CDISCPILOT01,703,1182,4,PRINIVIL,UNCODED,,UNCODED,20,mg,QD,ORAL,BASELINE,17-OCT-2013,2010,,Y
CDISCPILOT01,703,1182,4,PRINIVIL,UNCODED,,UNCODED,20,mg,QD,ORAL,WEEK 2,31-OCT-2013,2010,,Y
CDISCPILOT01,703,1182,4,PRINIVIL,UNCODED,,UNCODED,20,mg,QD,ORAL,WEEK 4,19-NOV-2013,2010,,Y
CDISCPILOT01,703,1182,4,PRINIVIL,UNCODED,,UNCODED,20,mg,QD,ORAL,AMBUL ECG REMOVAL,20-NOV-2013,2010,,Y
CDISCPILOT01,703,1182,4,PRINIVIL,UNCODED,,UNCODED,20,mg,QD,ORAL,WEEK 6,28-NOV-2013,2010,,Y
CDISCPILOT01,703,1182,4,PRINIVIL,UNCODED,,UNCODED,20,mg,QD,ORAL,WEEK 8,12-DEC-2013,2010,,Y
CDISCPILOT01,703,1182,4,PRINIVIL,UNCODED,,UNCODED,20,mg,QD,ORAL,AE FOLLOW-UP,14-JAN-2014,2010,,Y
CDISCPILOT01,703,1210,1,LASIX,FUROSEMIDE,,CARDIOVASCULAR SYSTEM,40,mg,QD,ORAL,SCREENING 1,08-MAR-2013,1971,,Y
CDISCPILOT01,703,1210,1,LASIX,FUROSEMIDE,,CARDIOVASCULAR SYSTEM,40,mg,QD,ORAL,SCREENING 2,14-MAR-2013,1971,,Y
CDISCPILOT01,703,1210,1,LASIX,FUROSEMIDE,,CARDIOVASCULAR SYSTEM,40,mg,QD,ORAL,BASELINE,16-MAR-2013,1971,,Y
CDISCPILOT01,703,1210,1,LASIX,FUROSEMIDE,,CARDIOVASCULAR SYSTEM,40,mg,QD,ORAL,WEEK 2,30-MAR-2013,1971,,Y
CDISCPILOT01,703,1210,1,LASIX,FUROSEMIDE,,CARDIOVASCULAR SYSTEM,40,mg,QD,ORAL,WEEK 4,12-APR-2013,1971,,Y
CDISCPILOT01,703,1210,1,LASIX,FUROSEMIDE,,CARDIOVASCULAR SYSTEM,40,mg,QD,ORAL,AMBUL ECG REMOVAL,14-APR-2013,1971,,Y
CDISCPILOT01,703,1210,1,LASIX,FUROSEMIDE,,CARDIOVASCULAR SYSTEM,40,mg,QD,ORAL,WEEK 6,28-APR-2013,1971,,Y
CDISCPILOT01,703,1210,1,LASIX,FUROSEMIDE,,CARDIOVASCULAR SYSTEM,40,mg,QD,ORAL,WEEK 8,10-MAY-2013,1971,,Y
CDISCPILOT01,703,1210,1,LASIX,FUROSEMIDE,,CARDIOVASCULAR SYSTEM,40,mg,QD,ORAL,WEEK 12,07-JUN-2013,1971,,Y
CDISCPILOT01,703,1210,1,LASIX,FUROSEMIDE,,CARDIOVASCULAR SYSTEM,40,mg,QD,ORAL,WEEK 16,05-JUL-2013,1971,,Y
CDISCPILOT01,703,1210,1,LASIX,FUROSEMIDE,,CARDIOVASCULAR SYSTEM,40,mg,QD,ORAL,WEEK 20,27-JUL-2013,1971,,Y
CDISCPILOT01,703,1210,1,LASIX,FUROSEMIDE,,CARDIOVASCULAR SYSTEM,40,mg,QD,ORAL,WEEK 24,24-AUG-2013,1971,,Y
CDISCPILOT01,703,1210,1,LASIX,FUROSEMIDE,,CARDIOVASCULAR SYSTEM,40,mg,QD,ORAL,WEEK 26,06-SEP-2013,1971,,Y
CDISCPILOT01,703,1258,1,ALEVE,NAPROXEN SODIUM,,RESPIRATORY SYSTEM,2,TABLET,PRN,ORAL,SCREENING 1,10-JUL-2012,2011,,Y
CDISCPILOT01,703,1258,1,ALEVE,NAPROXEN SODIUM,,RESPIRATORY SYSTEM,2,TABLET,PRN,ORAL,SCREENING 2,18-JUL-2012,2011,,Y
CDISCPILOT01,703,1258,1,ALEVE,NAPROXEN SODIUM,,RESPIRATORY SYSTEM,2,TABLET,PRN,ORAL,BASELINE,20-JUL-2012,2011,,Y
CDISCPILOT01,703,1258,1,ALEVE,NAPROXEN SODIUM,,RESPIRATORY SYSTEM,2,TABLET,PRN,ORAL,WEEK 2,01-AUG-2012,2011,,Y
CDISCPILOT01,703,1258,1,ALEVE,NAPROXEN SODIUM,,RESPIRATORY SYSTEM,2,TABLET,PRN,ORAL,WEEK 4,17-AUG-2012,2011,,Y
CDISCPILOT01,703,1258,1,ALEVE,NAPROXEN SODIUM,,RESPIRATORY SYSTEM,2,TABLET,PRN,ORAL,AMBUL ECG REMOVAL,19-AUG-2012,2011,,Y
CDISCPILOT01,703,1258,1,ALEVE,NAPROXEN SODIUM,,RESPIRATORY SYSTEM,2,TABLET,PRN,ORAL,WEEK 6,04-SEP-2012,2011,,Y
CDISCPILOT01,703,1258,1,ALEVE,NAPROXEN SODIUM,,RESPIRATORY SYSTEM,2,TABLET,PRN,ORAL,WEEK 8,14-SEP-2012,2011,,Y
CDISCPILOT01,703,1258,1,ALEVE,NAPROXEN SODIUM,,RESPIRATORY SYSTEM,2,TABLET,PRN,ORAL,WEEK 12,09-OCT-2012,2011,,Y
CDISCPILOT01,703,1258,1,ALEVE,NAPROXEN SODIUM,,RESPIRATORY SYSTEM,2,TABLET,PRN,ORAL,WEEK 16,05-NOV-2012,2011,,Y
CDISCPILOT01,703,1258,1,ALEVE,NAPROXEN SODIUM,,RESPIRATORY SYSTEM,2,TABLET,PRN,ORAL,WEEK 20,03-DEC-2012,2011,,Y
CDISCPILOT01,703,1258,1,ALEVE,NAPROXEN SODIUM,,RESPIRATORY SYSTEM,2,TABLET,PRN,ORAL,WEEK 24,31-DEC-2012,2011,,Y
CDISCPILOT01,703,1258,1,ALEVE,NAPROXEN SODIUM,,RESPIRATORY SYSTEM,2,TABLET,PRN,ORAL,WEEK 26,21-JAN-2013,2011,,Y
CDISCPILOT01,703,1258,1,ALEVE,NAPROXEN SODIUM,,RESPIRATORY SYSTEM,2,TABLET,PRN,ORAL,AE FOLLOW-UP,28-JAN-2013,2011,,Y
CDISCPILOT01,703,1258,2,CALTRATE,CALCIUM CARBONATE,PROPHYLAXIS OR NON-THERAPEUTIC USE,ALIMENTARY TRACT AND METABOLISM,2,TABLET,QD,ORAL,SCREENING 1,10-JUL-2012,2010,,Y
CDISCPILOT01,703,1258,2,CALTRATE,CALCIUM CARBONATE,PROPHYLAXIS OR NON-THERAPEUTIC USE,ALIMENTARY TRACT AND METABOLISM,2,TABLET,QD,ORAL,SCREENING 2,18-JUL-2012,2010,,Y
CDISCPILOT01,703,1258,2,CALTRATE,CALCIUM CARBONATE,PROPHYLAXIS OR NON-THERAPEUTIC USE,ALIMENTARY TRACT AND METABOLISM,2,TABLET,QD,ORAL,BASELINE,20-JUL-2012,2010,,Y
CDISCPILOT01,703,1258,2,CALTRATE,CALCIUM CARBONATE,PROPHYLAXIS OR NON-THERAPEUTIC USE,ALIMENTARY TRACT AND METABOLISM,2,TABLET,QD,ORAL,WEEK 2,01-AUG-2012,2010,,Y
CDISCPILOT01,703,1258,2,CALTRATE,CALCIUM CARBONATE,PROPHYLAXIS OR NON-THERAPEUTIC USE,ALIMENTARY TRACT AND METABOLISM,2,TABLET,QD,ORAL,WEEK 4,17-AUG-2012,2010,,Y
CDISCPILOT01,703,1258,2,CALTRATE,CALCIUM CARBONATE,PROPHYLAXIS OR NON-THERAPEUTIC USE,ALIMENTARY TRACT AND METABOLISM,2,TABLET,QD,ORAL,AMBUL ECG REMOVAL,19-AUG-2012,2010,,Y
CDISCPILOT01,703,1258,2,CALTRATE,CALCIUM CARBONATE,PROPHYLAXIS OR NON-THERAPEUTIC USE,ALIMENTARY TRACT AND METABOLISM,2,TABLET,QD,ORAL,WEEK 6,04-SEP-2012,2010,,Y
CDISCPILOT01,703,1258,2,CALTRATE,CALCIUM CARBONATE,PROPHYLAXIS OR NON-THERAPEUTIC USE,ALIMENTARY TRACT AND METABOLISM,2,TABLET,QD,ORAL,WEEK 8,14-SEP-2012,2010,,Y
CDISCPILOT01,703,1258,2,CALTRATE,CALCIUM CARBONATE,PROPHYLAXIS OR NON-THERAPEUTIC USE,ALIMENTARY TRACT AND METABOLISM,2,TABLET,QD,ORAL,WEEK 12,09-OCT-2012,2010,,Y
CDISCPILOT01,703,1258,2,CALTRATE,CALCIUM CARBONATE,PROPHYLAXIS OR NON-THERAPEUTIC USE,ALIMENTARY TRACT AND METABOLISM,2,TABLET,QD,ORAL,WEEK 16,05-NOV-2012,2010,,Y
CDISCPILOT01,703,1258,2,CALTRATE,CALCIUM CARBONATE,PROPHYLAXIS OR NON-THERAPEUTIC USE,ALIMENTARY TRACT AND METABOLISM,2,TABLET,QD,ORAL,WEEK 20,03-DEC-2012,2010,,Y
CDISCPILOT01,703,1258,2,CALTRATE,CALCIUM CARBONATE,PROPHYLAXIS OR NON-THERAPEUTIC USE,ALIMENTARY TRACT AND METABOLISM,2,TABLET,QD,ORAL,WEEK 24,31-DEC-2012,2010,,Y
CDISCPILOT01,703,1258,2,CALTRATE,CALCIUM CARBONATE,PROPHYLAXIS OR NON-THERAPEUTIC USE,ALIMENTARY TRACT AND METABOLISM,2,TABLET,QD,ORAL,WEEK 26,21-JAN-2013,2010,,Y
CDISCPILOT01,703,1258,2,CALTRATE,CALCIUM CARBONATE,PROPHYLAXIS OR NON-THERAPEUTIC USE,ALIMENTARY TRACT AND METABOLISM,2,TABLET,QD,ORAL,AE FOLLOW-UP,28-JAN-2013,2010,,Y
CDISCPILOT01,703,1258,3,VITAMIN E,UNCODED,PROPHYLAXIS OR NON-THERAPEUTIC USE,UNCODED,400,mg,QD,ORAL,SCREENING 1,10-JUL-2012,2011,,Y
CDISCPILOT01,703,1258,3,VITAMIN E,UNCODED,PROPHYLAXIS OR NON-THERAPEUTIC USE,UNCODED,400,mg,QD,ORAL,SCREENING 2,18-JUL-2012,2011,,Y
CDISCPILOT01,703,1258,3,VITAMIN E,UNCODED,PROPHYLAXIS OR NON-THERAPEUTIC USE,UNCODED,400,mg,QD,ORAL,BASELINE,20-JUL-2012,2011,,Y
CDISCPILOT01,703,1258,3,VITAMIN E,UNCODED,PROPHYLAXIS OR NON-THERAPEUTIC USE,UNCODED,400,mg,QD,ORAL,WEEK 2,01-AUG-2012,2011,,Y
CDISCPILOT01,703,1258,3,VITAMIN E,UNCODED,PROPHYLAXIS OR NON-THERAPEUTIC USE,UNCODED,400,mg,QD,ORAL,WEEK 4,17-AUG-2012,2011,,Y
CDISCPILOT01,703,1258,3,VITAMIN E,UNCODED,PROPHYLAXIS OR NON-THERAPEUTIC USE,UNCODED,400,mg,QD,ORAL,AMBUL ECG REMOVAL,19-AUG-2012,2011,,Y
CDISCPILOT01,703,1258,3,VITAMIN E,UNCODED,PROPHYLAXIS OR NON-THERAPEUTIC USE,UNCODED,400,mg,QD,ORAL,WEEK 6,04-SEP-2012,2011,,Y
CDISCPILOT01,703,1258,3,VITAMIN E,UNCODED,PROPHYLAXIS OR NON-THERAPEUTIC USE,UNCODED,400,mg,QD,ORAL,WEEK 8,14-SEP-2012,2011,,Y
CDISCPILOT01,703,1258,3,VITAMIN E,UNCODED,PROPHYLAXIS OR NON-THERAPEUTIC USE,UNCODED,400,mg,QD,ORAL,WEEK 12,09-OCT-2012,2011,,Y
CDISCPILOT01,703,1258,3,VITAMIN E,UNCODED,PROPHYLAXIS OR NON-THERAPEUTIC USE,UNCODED,400,mg,QD,ORAL,WEEK 16,05-NOV-2012,2011,,Y
CDISCPILOT01,703,1258,3,VITAMIN E,UNCODED,PROPHYLAXIS OR NON-THERAPEUTIC USE,UNCODED,400,mg,QD,ORAL,WEEK 20,03-DEC-2012,2011,,Y
CDISCPILOT01,703,1258,3,VITAMIN E,UNCODED,PROPHYLAXIS OR NON-THERAPEUTIC USE,UNCODED,400,mg,QD,ORAL,WEEK 24,31-DEC-2012,2011,,Y
CDISCPILOT01,703,1258,3,VITAMIN E,UNCODED,PROPHYLAXIS OR NON-THERAPEUTIC USE,UNCODED,400,mg,QD,ORAL,WEEK 26,21-JAN-2013,2011,,Y
CDISCPILOT01,703,1258,3,VITAMIN E,UNCODED,PROPHYLAXIS OR NON-THERAPEUTIC USE,UNCODED,400,mg,QD,ORAL,AE FOLLOW-UP,28-JAN-2013,2011,,Y
CDISCPILOT01,703,1258,4,NORVASC,AMLODIPINE,,CARDIOVASCULAR SYSTEM,5,TABLET,QD,ORAL,SCREENING 1,10-JUL-2012,2010,04-SEP-2012,N
CDISCPILOT01,703,1258,4,NORVASC,AMLODIPINE,,CARDIOVASCULAR SYSTEM,5,TABLET,QD,ORAL,SCREENING 2,18-JUL-2012,2010,04-SEP-2012,N
CDISCPILOT01,703,1258,4,NORVASC,AMLODIPINE,,CARDIOVASCULAR SYSTEM,5,TABLET,QD,ORAL,BASELINE,20-JUL-2012,2010,04-SEP-2012,N
CDISCPILOT01,703,1258,4,NORVASC,AMLODIPINE,,CARDIOVASCULAR SYSTEM,5,TABLET,QD,ORAL,WEEK 2,01-AUG-2012,2010,04-SEP-2012,N
CDISCPILOT01,703,1258,4,NORVASC,AMLODIPINE,,CARDIOVASCULAR SYSTEM,5,TABLET,QD,ORAL,WEEK 4,17-AUG-2012,2010,04-SEP-2012,N
CDISCPILOT01,703,1258,4,NORVASC,AMLODIPINE,,CARDIOVASCULAR SYSTEM,5,TABLET,QD,ORAL,AMBUL ECG REMOVAL,19-AUG-2012,2010,04-SEP-2012,N
CDISCPILOT01,703,1258,4,NORVASC,AMLODIPINE,,CARDIOVASCULAR SYSTEM,5,TABLET,QD,ORAL,WEEK 6,04-SEP-2012,2010,04-SEP-2012,N
CDISCPILOT01,703,1258,4,NORVASC,AMLODIPINE,,CARDIOVASCULAR SYSTEM,5,TABLET,QD,ORAL,WEEK 8,14-SEP-2012,2010,04-SEP-2012,N
CDISCPILOT01,703,1258,5,TIMOPTIC,UNCODED,,UNCODED,1,gtt,QD,OPHTHALMIC,SCREENING 1,10-JUL-2012,2010,19-NOV-2012,N
CDISCPILOT01,703,1258,5,TIMOPTIC,UNCODED,,UNCODED,1,gtt,QD,OPHTHALMIC,SCREENING 2,18-JUL-2012,2010,19-NOV-2012,N
CDISCPILOT01,703,1258,5,TIMOPTIC,UNCODED,,UNCODED,1,gtt,QD,OPHTHALMIC,BASELINE,20-JUL-2012,2010,19-NOV-2012,N
CDISCPILOT01,703,1258,5,TIMOPTIC,UNCODED,,UNCODED,1,gtt,QD,OPHTHALMIC,WEEK 2,01-AUG-2012,2010,19-NOV-2012,N
CDISCPILOT01,703,1258,5,TIMOPTIC,UNCODED,,UNCODED,1,gtt,QD,OPHTHALMIC,WEEK 4,17-AUG-2012,2010,19-NOV-2012,N
CDISCPILOT01,703,1258,5,TIMOPTIC,UNCODED,,UNCODED,1,gtt,QD,OPHTHALMIC,AMBUL ECG REMOVAL,19-AUG-2012,2010,19-NOV-2012,N
CDISCPILOT01,703,1258,5,TIMOPTIC,UNCODED,,UNCODED,1,gtt,QD,OPHTHALMIC,WEEK 6,04-SEP-2012,2010,19-NOV-2012,N
CDISCPILOT01,703,1258,5,TIMOPTIC,UNCODED,,UNCODED,1,gtt,QD,OPHTHALMIC,WEEK 8,14-SEP-2012,2010,19-NOV-2012,N
CDISCPILOT01,703,1258,5,TIMOPTIC,UNCODED,,UNCODED,1,gtt,QD,OPHTHALMIC,WEEK 12,09-OCT-2012,2010,19-NOV-2012,N
CDISCPILOT01,703,1258,5,TIMOPTIC,UNCODED,,UNCODED,1,gtt,QD,OPHTHALMIC,WEEK 16,05-NOV-2012,2010,19-NOV-2012,N
CDISCPILOT01,703,1258,5,TIMOPTIC,UNCODED,,UNCODED,1,gtt,QD,OPHTHALMIC,WEEK 20,03-DEC-2012,2010,19-NOV-2012,N
CDISCPILOT01,703,1258,6,HYDROCORTISONE,HYDROCORTISONE,,"SYSTEMIC HORMONAL PREPARATIONS, EXCL.",1,VIAL,PRN,TOPICAL,WEEK 6,04-SEP-2012,04-SEP-2012,20-JAN-2013,N
CDISCPILOT01,703,1258,6,HYDROCORTISONE,HYDROCORTISONE,,"SYSTEMIC HORMONAL PREPARATIONS, EXCL.",1,VIAL,PRN,TOPICAL,WEEK 8,14-SEP-2012,04-SEP-2012,20-JAN-2013,N
CDISCPILOT01,703,1258,6,HYDROCORTISONE,HYDROCORTISONE,,"SYSTEMIC HORMONAL PREPARATIONS, EXCL.",1,VIAL,PRN,TOPICAL,WEEK 12,09-OCT-2012,04-SEP-2012,20-JAN-2013,N
CDISCPILOT01,703,1258,6,HYDROCORTISONE,HYDROCORTISONE,,"SYSTEMIC HORMONAL PREPARATIONS, EXCL.",1,VIAL,PRN,TOPICAL,WEEK 16,05-NOV-2012,04-SEP-2012,20-JAN-2013,N
CDISCPILOT01,703,1258,6,HYDROCORTISONE,HYDROCORTISONE,,"SYSTEMIC HORMONAL PREPARATIONS, EXCL.",1,VIAL,PRN,TOPICAL,WEEK 20,03-DEC-2012,04-SEP-2012,20-JAN-2013,N
CDISCPILOT01,703,1258,6,HYDROCORTISONE,HYDROCORTISONE,,"SYSTEMIC HORMONAL PREPARATIONS, EXCL.",1,VIAL,PRN,TOPICAL,WEEK 24,31-DEC-2012,04-SEP-2012,20-JAN-2013,N
CDISCPILOT01,703,1258,6,HYDROCORTISONE,HYDROCORTISONE,,"SYSTEMIC HORMONAL PREPARATIONS, EXCL.",1,VIAL,PRN,TOPICAL,WEEK 26,21-JAN-2013,04-SEP-2012,20-JAN-2013,N
CDISCPILOT01,703,1295,1,FERROUS GLUCONATE,UNCODED,PROPHYLAXIS OR NON-THERAPEUTIC USE,UNCODED,1,TABLET,QD,ORAL,SCREENING 1,24-OCT-2013,2012,,Y
CDISCPILOT01,703,1295,1,FERROUS GLUCONATE,UNCODED,PROPHYLAXIS OR NON-THERAPEUTIC USE,UNCODED,1,TABLET,QD,ORAL,SCREENING 2,19-NOV-2013,2012,,Y
CDISCPILOT01,703,1295,1,FERROUS GLUCONATE,UNCODED,PROPHYLAXIS OR NON-THERAPEUTIC USE,UNCODED,1,TABLET,QD,ORAL,BASELINE,21-NOV-2013,2012,,Y
CDISCPILOT01,703,1295,1,FERROUS GLUCONATE,UNCODED,PROPHYLAXIS OR NON-THERAPEUTIC USE,UNCODED,1,TABLET,QD,ORAL,WEEK 2,05-DEC-2013,2012,,Y
CDISCPILOT01,703,1295,1,FERROUS GLUCONATE,UNCODED,PROPHYLAXIS OR NON-THERAPEUTIC USE,UNCODED,1,TABLET,QD,ORAL,WEEK 4,18-DEC-2013,2012,,Y
CDISCPILOT01,703,1295,1,FERROUS GLUCONATE,UNCODED,PROPHYLAXIS OR NON-THERAPEUTIC USE,UNCODED,1,TABLET,QD,ORAL,AMBUL ECG REMOVAL,20-DEC-2013,2012,,Y
CDISCPILOT01,703,1295,1,FERROUS GLUCONATE,UNCODED,PROPHYLAXIS OR NON-THERAPEUTIC USE,UNCODED,1,TABLET,QD,ORAL,WEEK 6,01-JAN-2014,2012,,Y
CDISCPILOT01,703,1295,1,FERROUS GLUCONATE,UNCODED,PROPHYLAXIS OR NON-THERAPEUTIC USE,UNCODED,1,TABLET,QD,ORAL,WEEK 8,15-JAN-2014,2012,,Y
CDISCPILOT01,703,1295,1,FERROUS GLUCONATE,UNCODED,PROPHYLAXIS OR NON-THERAPEUTIC USE,UNCODED,1,TABLET,QD,ORAL,WEEK 12,18-FEB-2014,2012,,Y
CDISCPILOT01,703,1295,1,FERROUS GLUCONATE,UNCODED,PROPHYLAXIS OR NON-THERAPEUTIC USE,UNCODED,1,TABLET,QD,ORAL,WEEK 16,13-MAR-2014,2012,,Y
CDISCPILOT01,703,1295,1,FERROUS GLUCONATE,UNCODED,PROPHYLAXIS OR NON-THERAPEUTIC USE,UNCODED,1,TABLET,QD,ORAL,WEEK 20,19-MAY-2014,2012,,Y
CDISCPILOT01,703,1295,2,MULTIVITAMIN,UNCODED,PROPHYLAXIS OR NON-THERAPEUTIC USE,UNCODED,1,CAPSULE,QD,ORAL,SCREENING 1,24-OCT-2013,2012,,Y
CDISCPILOT01,703,1295,2,MULTIVITAMIN,UNCODED,PROPHYLAXIS OR NON-THERAPEUTIC USE,UNCODED,1,CAPSULE,QD,ORAL,SCREENING 2,19-NOV-2013,2012,,Y
CDISCPILOT01,703,1295,2,MULTIVITAMIN,UNCODED,PROPHYLAXIS OR NON-THERAPEUTIC USE,UNCODED,1,CAPSULE,QD,ORAL,BASELINE,21-NOV-2013,2012,,Y
CDISCPILOT01,703,1295,2,MULTIVITAMIN,UNCODED,PROPHYLAXIS OR NON-THERAPEUTIC USE,UNCODED,1,CAPSULE,QD,ORAL,WEEK 2,05-DEC-2013,2012,,Y
CDISCPILOT01,703,1295,2,MULTIVITAMIN,UNCODED,PROPHYLAXIS OR NON-THERAPEUTIC USE,UNCODED,1,CAPSULE,QD,ORAL,WEEK 4,18-DEC-2013,2012,,Y
CDISCPILOT01,703,1295,2,MULTIVITAMIN,UNCODED,PROPHYLAXIS OR NON-THERAPEUTIC USE,UNCODED,1,CAPSULE,QD,ORAL,AMBUL ECG REMOVAL,20-DEC-2013,2012,,Y
CDISCPILOT01,703,1295,2,MULTIVITAMIN,UNCODED,PROPHYLAXIS OR NON-THERAPEUTIC USE,UNCODED,1,CAPSULE,QD,ORAL,WEEK 6,01-JAN-2014,2012,,Y
CDISCPILOT01,703,1295,2,MULTIVITAMIN,UNCODED,PROPHYLAXIS OR NON-THERAPEUTIC USE,UNCODED,1,CAPSULE,QD,ORAL,WEEK 8,15-JAN-2014,2012,,Y
CDISCPILOT01,703,1295,2,MULTIVITAMIN,UNCODED,PROPHYLAXIS OR NON-THERAPEUTIC USE,UNCODED,1,CAPSULE,QD,ORAL,WEEK 12,18-FEB-2014,2012,,Y
CDISCPILOT01,703,1295,2,MULTIVITAMIN,UNCODED,PROPHYLAXIS OR NON-THERAPEUTIC USE,UNCODED,1,CAPSULE,QD,ORAL,WEEK 16,13-MAR-2014,2012,,Y
CDISCPILOT01,703,1295,2,MULTIVITAMIN,UNCODED,PROPHYLAXIS OR NON-THERAPEUTIC USE,UNCODED,1,CAPSULE,QD,ORAL,WEEK 20,19-MAY-2014,2012,,Y
CDISCPILOT01,703,1295,3,OS-CAL,UNCODED,PROPHYLAXIS OR NON-THERAPEUTIC USE,UNCODED,1,TABLET,QD,ORAL,SCREENING 1,24-OCT-2013,2012,,Y
CDISCPILOT01,703,1295,3,OS-CAL,UNCODED,PROPHYLAXIS OR NON-THERAPEUTIC USE,UNCODED,1,TABLET,QD,ORAL,SCREENING 2,19-NOV-2013,2012,,Y
CDISCPILOT01,703,1295,3,OS-CAL,UNCODED,PROPHYLAXIS OR NON-THERAPEUTIC USE,UNCODED,1,TABLET,QD,ORAL,BASELINE,21-NOV-2013,2012,,Y
CDISCPILOT01,703,1295,3,OS-CAL,UNCODED,PROPHYLAXIS OR NON-THERAPEUTIC USE,UNCODED,1,TABLET,QD,ORAL,WEEK 2,05-DEC-2013,2012,,Y
CDISCPILOT01,703,1295,3,OS-CAL,UNCODED,PROPHYLAXIS OR NON-THERAPEUTIC USE,UNCODED,1,TABLET,QD,ORAL,WEEK 4,18-DEC-2013,2012,,Y
CDISCPILOT01,703,1295,3,OS-CAL,UNCODED,PROPHYLAXIS OR NON-THERAPEUTIC USE,UNCODED,1,TABLET,QD,ORAL,AMBUL ECG REMOVAL,20-DEC-2013,2012,,Y
CDISCPILOT01,703,1295,3,OS-CAL,UNCODED,PROPHYLAXIS OR NON-THERAPEUTIC USE,UNCODED,1,TABLET,QD,ORAL,WEEK 6,01-JAN-2014,2012,,Y
CDISCPILOT01,703,1295,3,OS-CAL,UNCODED,PROPHYLAXIS OR NON-THERAPEUTIC USE,UNCODED,1,TABLET,QD,ORAL,WEEK 8,15-JAN-2014,2012,,Y
CDISCPILOT01,703,1295,3,OS-CAL,UNCODED,PROPHYLAXIS OR NON-THERAPEUTIC USE,UNCODED,1,TABLET,QD,ORAL,WEEK 12,18-FEB-2014,2012,,Y
CDISCPILOT01,703,1295,3,OS-CAL,UNCODED,PROPHYLAXIS OR NON-THERAPEUTIC USE,UNCODED,1,TABLET,QD,ORAL,WEEK 16,13-MAR-2014,2012,,Y
CDISCPILOT01,703,1295,3,OS-CAL,UNCODED,PROPHYLAXIS OR NON-THERAPEUTIC USE,UNCODED,1,TABLET,QD,ORAL,WEEK 20,19-MAY-2014,2012,,Y
CDISCPILOT01,703,1295,4,PERI-COLACE,UNCODED,,UNCODED,3,CAPSULE,QD,ORAL,SCREENING 1,24-OCT-2013,2012,,Y
CDISCPILOT01,703,1295,4,PERI-COLACE,UNCODED,,UNCODED,3,CAPSULE,QD,ORAL,SCREENING 2,19-NOV-2013,2012,,Y
CDISCPILOT01,703,1295,4,PERI-COLACE,UNCODED,,UNCODED,3,CAPSULE,QD,ORAL,BASELINE,21-NOV-2013,2012,,Y
CDISCPILOT01,703,1295,4,PERI-COLACE,UNCODED,,UNCODED,3,CAPSULE,QD,ORAL,WEEK 2,05-DEC-2013,2012,,Y
CDISCPILOT01,703,1295,4,PERI-COLACE,UNCODED,,UNCODED,3,CAPSULE,QD,ORAL,WEEK 4,18-DEC-2013,2012,,Y
CDISCPILOT01,703,1295,4,PERI-COLACE,UNCODED,,UNCODED,3,CAPSULE,QD,ORAL,AMBUL ECG REMOVAL,20-DEC-2013,2012,,Y
CDISCPILOT01,703,1295,4,PERI-COLACE,UNCODED,,UNCODED,3,CAPSULE,QD,ORAL,WEEK 6,01-JAN-2014,2012,,Y
CDISCPILOT01,703,1295,4,PERI-COLACE,UNCODED,,UNCODED,3,CAPSULE,QD,ORAL,WEEK 8,15-JAN-2014,2012,,Y
CDISCPILOT01,703,1295,4,PERI-COLACE,UNCODED,,UNCODED,3,CAPSULE,QD,ORAL,WEEK 12,18-FEB-2014,2012,,Y
CDISCPILOT01,703,1295,4,PERI-COLACE,UNCODED,,UNCODED,3,CAPSULE,QD,ORAL,WEEK 16,13-MAR-2014,2012,,Y
CDISCPILOT01,703,1295,4,PERI-COLACE,UNCODED,,UNCODED,3,CAPSULE,QD,ORAL,WEEK 20,19-MAY-2014,2012,,Y
CDISCPILOT01,703,1295,5,SYNTHROID,UNCODED,,UNCODED,0.2,mg,QD,ORAL,SCREENING 1,24-OCT-2013,2003,,Y
CDISCPILOT01,703,1295,5,SYNTHROID,UNCODED,,UNCODED,0.2,mg,QD,ORAL,SCREENING 2,19-NOV-2013,2003,,Y
CDISCPILOT01,703,1295,5,SYNTHROID,UNCODED,,UNCODED,0.2,mg,QD,ORAL,BASELINE,21-NOV-2013,2003,,Y
CDISCPILOT01,703,1295,5,SYNTHROID,UNCODED,,UNCODED,0.2,mg,QD,ORAL,WEEK 2,05-DEC-2013,2003,,Y
CDISCPILOT01,703,1295,5,SYNTHROID,UNCODED,,UNCODED,0.2,mg,QD,ORAL,WEEK 4,18-DEC-2013,2003,,Y
CDISCPILOT01,703,1295,5,SYNTHROID,UNCODED,,UNCODED,0.2,mg,QD,ORAL,AMBUL ECG REMOVAL,20-DEC-2013,2003,,Y
CDISCPILOT01,703,1295,5,SYNTHROID,UNCODED,,UNCODED,0.2,mg,QD,ORAL,WEEK 6,01-JAN-2014,2003,,Y
CDISCPILOT01,703,1295,5,SYNTHROID,UNCODED,,UNCODED,0.2,mg,QD,ORAL,WEEK 8,15-JAN-2014,2003,,Y
CDISCPILOT01,703,1295,5,SYNTHROID,UNCODED,,UNCODED,0.2,mg,QD,ORAL,WEEK 12,18-FEB-2014,2003,,Y
CDISCPILOT01,703,1295,5,SYNTHROID,UNCODED,,UNCODED,0.2,mg,QD,ORAL,WEEK 16,13-MAR-2014,2003,,Y
CDISCPILOT01,703,1295,5,SYNTHROID,UNCODED,,UNCODED,0.2,mg,QD,ORAL,WEEK 20,19-MAY-2014,2003,,Y
CDISCPILOT01,703,1295,6,TYLENOL,UNCODED,,UNCODED,325,mg,PRN,ORAL,SCREENING 1,24-OCT-2013,2012,,Y
CDISCPILOT01,703,1295,6,TYLENOL,UNCODED,,UNCODED,325,mg,PRN,ORAL,SCREENING 2,19-NOV-2013,2012,,Y
CDISCPILOT01,703,1295,6,TYLENOL,UNCODED,,UNCODED,325,mg,PRN,ORAL,BASELINE,21-NOV-2013,2012,,Y
CDISCPILOT01,703,1295,6,TYLENOL,UNCODED,,UNCODED,325,mg,PRN,ORAL,WEEK 2,05-DEC-2013,2012,,Y
CDISCPILOT01,703,1295,6,TYLENOL,UNCODED,,UNCODED,325,mg,PRN,ORAL,WEEK 4,18-DEC-2013,2012,,Y
CDISCPILOT01,703,1295,6,TYLENOL,UNCODED,,UNCODED,325,mg,PRN,ORAL,AMBUL ECG REMOVAL,20-DEC-2013,2012,,Y
CDISCPILOT01,703,1295,6,TYLENOL,UNCODED,,UNCODED,325,mg,PRN,ORAL,WEEK 6,01-JAN-2014,2012,,Y
CDISCPILOT01,703,1295,6,TYLENOL,UNCODED,,UNCODED,325,mg,PRN,ORAL,WEEK 8,15-JAN-2014,2012,,Y
CDISCPILOT01,703,1295,6,TYLENOL,UNCODED,,UNCODED,325,mg,PRN,ORAL,WEEK 12,18-FEB-2014,2012,,Y
CDISCPILOT01,703,1295,6,TYLENOL,UNCODED,,UNCODED,325,mg,PRN,ORAL,WEEK 16,13-MAR-2014,2012,,Y
CDISCPILOT01,703,1295,6,TYLENOL,UNCODED,,UNCODED,325,mg,PRN,ORAL,WEEK 20,19-MAY-2014,2012,,Y
CDISCPILOT01,703,1299,1,TIMOPTIC,UNCODED,,UNCODED,1,gtt,QD,OPHTHALMIC,SCREENING 1,07-SEP-2012,1992,,Y
CDISCPILOT01,703,1299,1,TIMOPTIC,UNCODED,,UNCODED,1,gtt,QD,OPHTHALMIC,SCREENING 2,10-SEP-2012,1992,,Y
CDISCPILOT01,703,1299,1,TIMOPTIC,UNCODED,,UNCODED,1,gtt,QD,OPHTHALMIC,BASELINE,12-SEP-2012,1992,,Y
CDISCPILOT01,703,1299,1,TIMOPTIC,UNCODED,,UNCODED,1,gtt,QD,OPHTHALMIC,WEEK 2,28-SEP-2012,1992,,Y
CDISCPILOT01,703,1299,1,TIMOPTIC,UNCODED,,UNCODED,1,gtt,QD,OPHTHALMIC,WEEK 4,10-OCT-2012,1992,,Y
CDISCPILOT01,703,1299,1,TIMOPTIC,UNCODED,,UNCODED,1,gtt,QD,OPHTHALMIC,AMBUL ECG REMOVAL,12-OCT-2012,1992,,Y
CDISCPILOT01,703,1299,1,TIMOPTIC,UNCODED,,UNCODED,1,gtt,QD,OPHTHALMIC,WEEK 6,24-OCT-2012,1992,,Y
CDISCPILOT01,703,1299,1,TIMOPTIC,UNCODED,,UNCODED,1,gtt,QD,OPHTHALMIC,WEEK 8,07-NOV-2012,1992,,Y
CDISCPILOT01,703,1299,1,TIMOPTIC,UNCODED,,UNCODED,1,gtt,QD,OPHTHALMIC,WEEK 12,05-DEC-2012,1992,,Y
CDISCPILOT01,703,1299,1,TIMOPTIC,UNCODED,,UNCODED,1,gtt,QD,OPHTHALMIC,WEEK 16,02-JAN-2013,1992,,Y
CDISCPILOT01,703,1299,1,TIMOPTIC,UNCODED,,UNCODED,1,gtt,QD,OPHTHALMIC,WEEK 20,30-JAN-2013,1992,,Y
CDISCPILOT01,703,1299,1,TIMOPTIC,UNCODED,,UNCODED,1,gtt,QD,OPHTHALMIC,WEEK 24,01-MAR-2013,1992,,Y
CDISCPILOT01,703,1299,1,TIMOPTIC,UNCODED,,UNCODED,1,gtt,QD,OPHTHALMIC,WEEK 26,13-MAR-2013,1992,,Y
